VERSION 19b
Control_state [-]; ARDrone_state [-]; Time [s];     AccX_raw [LSB]; AccY_raw [LSB]; AccZ_raw [LSB];     GyroX_raw [LSB]; GyroY_raw [LSB]; GyroZ_raw [LSB]; GyroX_110_raw [LSB]; GyroY_110_raw [LSB];Battery_Voltage_raw [mV];     Alim_3V3 [LSB]; vrefEpson [LSB]; vrefIDG [LSB]; us_debut_echo [LSB]; us_fin_echo [LSB]; us_association_echo; us_distance_echo [LSB];     us_courbe_temps [LSB]; us_courbe_valeur [LSB]; us_courbe_ref [LSB];    Accs_temperature [K]; Gyro_temperature [LSB]; AccX_phys_filt [mg]; AccY_phys_filt [mg]; AccZ_phys_filt [mg];     GyroX_phys_filt [deg/s]; GyroY_phys_filt [deg/s]; GyroZ_phys_filt [deg/s];    GyroX_offset [deg/s]; GyroY_offset [deg/s]; GyroZ_offset [deg/s];     Theta_acc [mdeg]; Phi_acc [mdeg];    Theta_ref_embedded [mdeg]; Phi_ref_embedded [mdeg]; Psi_ref_embedded [mdeg]; Theta_ref_int [mdeg]; Phi_ref_int [mdeg];     Pitch_ref_embedded [mdeg]; Roll_ref_embedded [mdeg]; Yaw_ref_embedded [mdeg/s];     Theta_trim_embedded [mdeg]; Phi_trim_embedded [mdeg]; Yaw_trim_embedded [mdeg/s];     Pitch_rc_embedded [-]; Roll_rc_embedded [-]; Yaw_rc_embedded [-]; Gaz_rc_embedded [-]; Ag_rc_embedded [-]; User_Input [-];     PWM1 [PWM]; PWM2 [PWM]; PWM3 [PWM]; PWM4 [PWM];    SAT_PWM1 [PWM]; SAT_PWM2 [PWM]; SAT_PWM3 [PWM]; SAT_PWM4 [PWM];    Gaz_feed_forward [PWM]; Gaz_altitude [PWM]; Altitude_integral [mm/s]; Vz_Ref [mm/s] ;    u_pitch [PWM]; u_roll [PWM]; u_yaw [PWM]; yaw_u_I [PWM];    u_pitch_planif [PWM]; u_roll_planif [PWM]; u_yaw_planif [PWM]; u_gaz_planif [PWM];    Current_motor1 [mA]; Current_motor2 [mA]; Current_motor3 [mA]; Current_motor4 [mA];    Altitude_vision [mm]; Altitude_vz [mm/s]; Altitude_ref_embedded [mm]; Altitude_raw [mm];     Vision_tx_raw [-]; Vision_ty_raw [-]; Vision_tz_raw [-];   Vision_State [-]; Vision_defined [-];    Vision_phi_trim[rad]; Vision_phi_ref_prop[rad]; Vision_theta_trim[rad]; Vision_theta_ref_prop[rad];    Vx_body [mm/s]; Vy_body [mm/s]; Vz_body [mm/s];    New_raw_picture [-]; T_capture; F_capture; P_capture; delta_Phi; delta_Theta; delta_Psi; Alt_capture [-]; time_capture [s];	Demo_vbat [-]; Demo_theta [mdeg]; Demo_phi [mdeg]; Demo_psi [mdeg];  Demo_altitude [mm];  Demo_vx [mm/s]; Demo_vy [mm/s]; Demo_vz [mm/s];Demo_num_frames [-];    Demo_detect_rot_m11 [-]; Demo_detect_rot_m12 [-]; Demo_detect_rot_m13 [-]; Demo_detect_rot_m21 [-]; Demo_detect_rot_m22 [-]; Demo_detect_rot_m23 [-];    Demo_detect_rot_m31 [-]; Demo_detect_rot_m32 [-]; Demo_detect_rot_m33 [-]; Demo_detect_trans_v1 [-]; Demo_detect_trans_v2 [-]; Demo_detect_trans_v3 [-]; 	Demo_detect_tag_index [-]; Demo_camera_type [-]; Demo_drone_camera_rot_m11 [-]; Demo_drone_camera_rot_m12 [-]; Demo_drone_camera_rot_m13 [-];    Demo_drone_camera_rot_m21 [-]; Demo_drone_camera_rot_m22 [-]; Demo_drone_camera_rot_m23 [-]; Demo_drone_camera_rot_m31 [-]; Demo_drone_camera_rot_m32 [-];    Demo_drone_camera_rot_m33 [-]; Demo_drone_camera_trans_x [-]; Demo_drone_camera_trans_y [-]; Demo_drone_camera_trans_z [-];		nd_iphone_enable [-]; nd_iphone_phi [-]; nd_iphone_theta [-]; nd_iphone_gaz [-]; nd_iphone_yaw [-];Locked_0; X_0; Y_0; Locked_1; X_1; Y_1; Locked_2; X_2; Y_2; Locked_3; X_3; Y_3; Locked_4; X_4; Y_4; Locked_5; X_5; Y_5; Locked_6; X_6; Y_6; Locked_7; X_7; Y_7; Locked_8; X_8; Y_8; Locked_9; X_9; Y_9; Locked_10; X_10; Y_10; Locked_11; X_11; Y_11; Locked_12; X_12; Y_12; Locked_13; X_13; Y_13; Locked_14; X_14; Y_14; Locked_15; X_15; Y_15; Locked_16; X_16; Y_16; Locked_17; X_17; Y_17; Locked_18; X_18; Y_18; Locked_19; X_19; Y_19; Locked_20; X_20; Y_20; Locked_21; X_21; Y_21; Locked_22; X_22; Y_22; Locked_23; X_23; Y_23; Locked_24; X_24; Y_24; Locked_25; X_25; Y_25; Locked_26; X_26; Y_26; Locked_27; X_27; Y_27; Locked_28; X_28; Y_28; Locked_29; X_29; Y_29; Nb_detected; Type_0; Xd_0; Yd_0; W_0; H_0; D_0; Type_1; Xd_1; Yd_1; W_1; H_1; D_1; Type_2; Xd_2; Yd_2; W_2; H_2; D_2; Type_3; Xd_3; Yd_3; W_3; H_3; D_3; Perf_szo [ms]; Perf_corners [ms]; Perf_compute [ms]; Perf_tracking [ms]; Perf_trans [ms]; Perf_update [ms]; Perf_Custom_0; Perf_Custom_1; Perf_Custom_2; Perf_Custom_3; Perf_Custom_4; Perf_Custom_5; Perf_Custom_6; Perf_Custom_7; Perf_Custom_8; Perf_Custom_9; Perf_Custom_10; Perf_Custom_11; Perf_Custom_12; Perf_Custom_13; Perf_Custom_14; Perf_Custom_15; Perf_Custom_16; Perf_Custom_17; Perf_Custom_18; Perf_Custom_19; Watchdog Control [-];     flag_new_picture [-];
0; 3486122004;919.642633; 2064; 1988; 3064; 1734; 1461; 1654; 1957; 0701; 11944; 0000; 1705; 1671; 0000; 0000; 3758; 0000; 20266; 0000; 0120; 49.594032; 1514;  8.618217;  31.717331; -996.031982; -0.039568;  0.108334;  0.068934; -0.137240;  0.624208;  0.000000;  495.000000; -1823.000000;  -1212; -2415; 52956; 0000; 0000; -38059; -34508; 000000;  3.565704; -2.971961;  0.000000; 0000; 0000; 0000; 0000; 0000; 290717696; 000; 000; 000; 000; 255; 255; 255; 255; 156; 135; -0.004717;  346.101318; -55; 029; -23; -20.057739; 000; 000; 000;  0.000000; 0000; 0000; 0000; 0000; 0209; 0.000000; 0000; 0209;  0.000000;  0.000000;  0.000000; 0; 0;  1.500000;-0.042159; 0.056241;-0.021170;  0.000000;  0.000000;  0.000000; 0; -0.049738;  0.019461;  2.963234;  0.000000;  0.000000;  0.000000;  210; 919.628183; 0049; -2850.000000;  1110.000000;  169778.000000; 0209; 0.000000; 0.000000; 0.000000 ; 16674; 0.000000; 0.000000; 0.000000; 0.000000; 0.000000; 0.000000; 0.000000; 0.000000; 0.000000; 0.000000; 0.000000; 0.000000; 0000; 0000; -0.982912; -0.176467; 0.052379; 0.177230; -0.984116; 0.010250; 0.049738; 0.019358; 0.998575; 0.000000; 0.000000; 0.000000; 0; 0.000000; 0.000000; 0.000000; 0.000000; -1; 88; 72; 1; 37; 24; 0; 73; 20; 0; 119; 24; 0; 158; 2; 0; 9; 56; 0; 51; 54; 0; 85; 54; 0; 119; 54; 0; 149; 54; 0; 17; 84; 0; 51; 90; 0; 85; 90; 0; 119; 90; 0; 149; 90; 0; 7; 115; 1; 38; 109; 0; 85; 119; 1; 118; 118; 1; 144; 119; 0; 0; 0; 0; 0; 0; 0; 0; 0; 0; 0; 0; 0; 0; 0; 0; 0; 0; 0; 0; 0; 0; 0; 0; 0; 0; 0; 0; 0; 0; 0; 0; 0; 0; 0; 0; 0; 0; 0; 0; 0; 0; 0; 0; 0; 0; 0; 0; 0; 0; 0; 0; 0; 0; 0; 0.000000; 0.000000; 0.000000; 0.000000; 0.000000; 0.000000; 0.000000; 0.000000; 0.000000; 0.000000; 0.000000; 0.000000; 0.000000; 0.000000; 0.000000; 0.000000; 0.000000; 0.000000; 0.000000; 0.000000; 0.000000; 0.000000; 0.000000; 0.000000; 0.000000; 0.000000; 303; 0
0; 3486122004;919.647495; 2064; 1988; 3064; 1733; 1461; 1655; 1954; 0701; 11944; 0000; 1705; 1672; 0000; 0000; 3758; 0000; 20401; 0000; 0120; 49.593742; 1514;  8.543213;  31.895744; -994.430176; -0.128541;  0.159521;  0.033375; -0.137244;  0.624231;  0.000000;  491.000000; -1837.000000;  -1212; -2415; 52956; 0000; 0000; -38059; -34508; 000000;  3.565704; -2.971961;  0.000000; 0000; 0000; 0000; 0000; 0000; 290717696; 000; 000; 000; 000; 255; 255; 255; 255; 156; 135; -0.004717;  346.101318; -55; 029; -23; -20.057739; 000; 000; 000;  0.000000; 0000; 0000; 0000; 0000; 0209; 0.000000; 0000; 0209;  0.000000;  0.000000;  0.000000; 0; 0;  1.500000;-0.042159; 0.056241;-0.021170;  0.000000;  0.000000;  0.000000; 0; -0.049738;  0.019461;  2.963234; -0.000046;  0.000035;  0.000006;  210; 919.628183; 0049; -2850.000000;  1110.000000;  169778.000000; 0209; 0.000000; 0.000000; 0.000000 ; 16674; 0.000000; 0.000000; 0.000000; 0.000000; 0.000000; 0.000000; 0.000000; 0.000000; 0.000000; 0.000000; 0.000000; 0.000000; 0000; 0000; -0.982911; -0.176472; 0.052375; 0.177233; -0.984116; 0.010241; 0.049736; 0.019349; 0.998575; 0.000000; 0.000000; 0.000000; 0; 0.000000; 0.000000; 0.000000; 0.000000; -1; 88; 72; 1; 37; 24; 0; 73; 20; 0; 119; 24; 0; 158; 2; 0; 9; 56; 0; 51; 54; 0; 85; 54; 0; 119; 54; 0; 149; 54; 0; 17; 84; 0; 51; 90; 0; 85; 90; 0; 119; 90; 0; 149; 90; 0; 7; 115; 1; 38; 109; 0; 85; 119; 1; 118; 118; 1; 144; 119; 0; 0; 0; 0; 0; 0; 0; 0; 0; 0; 0; 0; 0; 0; 0; 0; 0; 0; 0; 0; 0; 0; 0; 0; 0; 0; 0; 0; 0; 0; 0; 0; 0; 0; 0; 0; 0; 0; 0; 0; 0; 0; 0; 0; 0; 0; 0; 0; 0; 0; 0; 0; 0; 0; 0; 0.000000; 0.000000; 0.000000; 0.000000; 0.000000; 0.000000; 0.000000; 0.000000; 0.000000; 0.000000; 0.000000; 0.000000; 0.000000; 0.000000; 0.000000; 0.000000; 0.000000; 0.000000; 0.000000; 0.000000; 0.000000; 0.000000; 0.000000; 0.000000; 0.000000; 0.000000; 4848; 0
0; 3486122004;919.652500; 2064; 1988; 3064; 1734; 1461; 1654; 1957; 0700; 11944; 0000; 1705; 1671; 0000; 0000; 3758; 0000; 20538; 0000; 0120; 49.593452; 1514;  8.581913;  32.247719; -995.423584; -0.041096; -0.172499;  0.005698; -0.137246;  0.624252;  0.000000;  493.000000; -1855.000000;  -1212; -2415; 52956; 0000; 0000; -38059; -34508; 000000;  3.565704; -2.971961;  0.000000; 0000; 0000; 0000; 0000; 0000; 290717696; 000; 000; 000; 000; 255; 255; 255; 255; 156; 135; -0.004717;  346.101318; -55; 029; -23; -20.057739; 000; 000; 000;  0.000000; 0000; 0000; 0000; 0000; 0209; 0.000000; 0000; 0209;  0.000000;  0.000000;  0.000000; 0; 0;  1.500000;-0.042159; 0.056241;-0.021170;  0.000000;  0.000000;  0.000000; 0; -0.049759;  0.019383;  2.963198; -0.000046;  0.000035;  0.000006;  209; 919.644819; 0049; -2852.000000;  1109.000000;  169778.000000; 0209; 0.000000; 0.000000; 0.000000 ; 16674; 0.000000; 0.000000; 0.000000; 0.000000; 0.000000; 0.000000; 0.000000; 0.000000; 0.000000; 0.000000; 0.000000; 0.000000; 0000; 0000; -0.982909; -0.176478; 0.052401; 0.177240; -0.984115; 0.010234; 0.049762; 0.019346; 0.998574; 0.000000; 0.000000; 0.000000; 0; 0.000000; 0.000000; 0.000000; 0.000000; -1; 88; 72; 1; 37; 24; 0; 73; 20; 0; 119; 24; 0; 158; 2; 0; 9; 56; 0; 51; 54; 0; 85; 54; 0; 119; 54; 0; 149; 54; 0; 17; 84; 0; 51; 90; 0; 85; 90; 0; 119; 90; 0; 149; 90; 0; 7; 115; 1; 38; 109; 0; 85; 119; 1; 118; 118; 1; 144; 119; 0; 0; 0; 0; 0; 0; 0; 0; 0; 0; 0; 0; 0; 0; 0; 0; 0; 0; 0; 0; 0; 0; 0; 0; 0; 0; 0; 0; 0; 0; 0; 0; 0; 0; 0; 0; 0; 0; 0; 0; 0; 0; 0; 0; 0; 0; 0; 0; 0; 0; 0; 0; 0; 0; 0; 0.000000; 0.000000; 0.000000; 0.000000; 0.000000; 0.000000; 0.000000; 0.000000; 0.000000; 0.000000; 0.000000; 0.000000; 0.000000; 0.000000; 0.000000; 0.000000; 0.000000; 0.000000; 0.000000; 0.000000; 0.000000; 0.000000; 0.000000; 0.000000; 0.000000; 0.000000; 4966; 0
0; 3486122004;919.657497; 2064; 1988; 3060; 1734; 1460; 1654; 1956; 0699; 11944; 0000; 1705; 1671; 0772; 2097; 0000; 0000; 20674; 0000; 0120; 49.593163; 1515;  8.492027;  32.040871; -993.280762;  0.019551;  0.001764;  0.034092; -0.137249;  0.624275;  0.000000;  489.000000; -1847.000000;  -1212; -2415; 52956; 0000; 0000; -38059; -34508; 000000;  3.565704; -2.971961;  0.000000; 0000; 0000; 0000; 0000; 0000; 290717696; 000; 000; 000; 000; 255; 255; 255; 255; 156; 135; -0.004717;  346.101318; -55; 029; -23; -20.057739; 000; 000; 000;  0.000000; 0000; 0000; 0000; 0000; 0209; 0.000000; 0000; 0209;  0.000000;  0.000000;  0.000000; 0; 0;  1.500000;-0.042159; 0.056241;-0.021170;  0.000000;  0.000000;  0.000000; 0; -0.049759;  0.019383;  2.963198; -0.000046;  0.000035;  0.000006;  209; 919.644819; 0049; -2853.000000;  1110.000000;  169777.000000; 0209; 0.000000; 0.000000; 0.000000 ; 16674; 0.000000; 0.000000; 0.000000; 0.000000; 0.000000; 0.000000; 0.000000; 0.000000; 0.000000; 0.000000; 0.000000; 0.000000; 0000; 0000; -0.982908; -0.176481; 0.052413; 0.177243; -0.984114; 0.010235; 0.049774; 0.019350; 0.998573; 0.000000; 0.000000; 0.000000; 0; 0.000000; 0.000000; 0.000000; 0.000000; -1; 88; 72; 1; 37; 24; 0; 73; 20; 0; 119; 24; 0; 158; 2; 0; 9; 56; 0; 51; 54; 0; 85; 54; 0; 119; 54; 0; 149; 54; 0; 17; 84; 0; 51; 90; 0; 85; 90; 0; 119; 90; 0; 149; 90; 0; 7; 115; 1; 38; 109; 0; 85; 119; 1; 118; 118; 1; 144; 119; 0; 0; 0; 0; 0; 0; 0; 0; 0; 0; 0; 0; 0; 0; 0; 0; 0; 0; 0; 0; 0; 0; 0; 0; 0; 0; 0; 0; 0; 0; 0; 0; 0; 0; 0; 0; 0; 0; 0; 0; 0; 0; 0; 0; 0; 0; 0; 0; 0; 0; 0; 0; 0; 0; 0; 0.000000; 0.000000; 0.000000; 0.000000; 0.000000; 0.000000; 0.000000; 0.000000; 0.000000; 0.000000; 0.000000; 0.000000; 0.000000; 0.000000; 0.000000; 0.000000; 0.000000; 0.000000; 0.000000; 0.000000; 0.000000; 0.000000; 0.000000; 0.000000; 0.000000; 0.000000; 4960; 0
0; 3486122004;919.667527; 2064; 1988; 3060; 1734; 1460; 1654; 1957; 0697; 11944; 0000; 1705; 1671; 0000; 0000; 3758; 0000; 20946; 0000; 0120; 49.594147; 1515;  8.424128;  31.963394; -991.687988;  0.220520;  0.152336;  0.100608; -0.137256;  0.624322;  0.000000;  486.000000; -1846.000000;  -1212; -2415; 52956; 0000; 0000; -38059; -34508; 000000;  3.565704; -2.971961;  0.000000; 0000; 0000; 0000; 0000; 0000; 290717696; 000; 000; 000; 000; 255; 255; 255; 255; 156; 135; -0.004717;  346.101318; -55; 029; -23; -20.057739; 000; 000; 000;  0.000000; 0000; 0000; 0000; 0000; 0209; 0.000000; 0000; 0209;  0.000000;  0.000000;  0.000000; 0; 0;  1.500000;-0.042159; 0.056241;-0.021170;  0.000000;  0.000000;  0.000000; 0; -0.049795;  0.019375;  2.963184; -0.000020;  0.000009;  0.000009;  209; 919.661430; 0049; -2853.000000;  1111.000000;  169777.000000; 0209; 0.000000; 0.000000; 0.000000 ; 16674; 0.000000; 0.000000; 0.000000; 0.000000; 0.000000; 0.000000; 0.000000; 0.000000; 0.000000; 0.000000; 0.000000; 0.000000; 0000; 0000; -0.982907; -0.176481; 0.052428; 0.177245; -0.984113; 0.010252; 0.049786; 0.019370; 0.998572; 0.000000; 0.000000; 0.000000; 0; 0.000000; 0.000000; 0.000000; 0.000000; -1; 88; 72; 1; 37; 24; 0; 73; 20; 0; 119; 24; 0; 158; 2; 0; 9; 56; 0; 51; 54; 0; 85; 54; 0; 119; 54; 0; 149; 54; 0; 17; 84; 0; 51; 90; 0; 85; 90; 0; 119; 90; 0; 149; 90; 0; 7; 115; 1; 38; 109; 0; 85; 119; 1; 118; 118; 1; 144; 119; 0; 0; 0; 0; 0; 0; 0; 0; 0; 0; 0; 0; 0; 0; 0; 0; 0; 0; 0; 0; 0; 0; 0; 0; 0; 0; 0; 0; 0; 0; 0; 0; 0; 0; 0; 0; 0; 0; 0; 0; 0; 0; 0; 0; 0; 0; 0; 0; 0; 0; 0; 0; 0; 0; 0; 0.000000; 0.000000; 0.000000; 0.000000; 0.000000; 0.000000; 0.000000; 0.000000; 0.000000; 0.000000; 0.000000; 0.000000; 0.000000; 0.000000; 0.000000; 0.000000; 0.000000; 0.000000; 0.000000; 0.000000; 0.000000; 0.000000; 0.000000; 0.000000; 0.000000; 0.000000; 4990; 0
0; 2412380180;919.672494; 2068; 1988; 3060; 1733; 1460; 1654; 1953; 0698; 11944; 0000; 1706; 1671; 0000; 0000; 3758; 0000; 21081; 0000; 0120; 49.593857; 1514;  9.833025;  31.906761; -990.396973; -0.069514;  0.257787;  0.082260; -0.137260;  0.624338;  0.000000;  568.000000; -1845.000000;  -1212; -2415; 52956; 0000; 0000; -38059; -34508; 000000;  3.565704; -2.971961;  0.000000; 0000; 0000; 0000; 0000; 0000; 290717696; 000; 000; 000; 000; 255; 255; 255; 255; 156; 135; -0.004717;  346.101318; -55; 029; -23; -20.057739; 000; 000; 000;  0.000000; 0000; 0000; 0000; 0000; 0209; 0.000000; 0000; 0209;  0.000000;  0.000000;  0.000000; 0; 0;  1.500000;-0.042159; 0.056241;-0.021170;  0.000000;  0.000000;  0.000000; 0; -0.049795;  0.019375;  2.963184; -0.000020;  0.000009;  0.000009;  209; 919.661430; 0049; -2852.000000;  1111.000000;  169777.000000; 0209; 0.000000; 0.000000; 0.000000 ; 16674; 0.000000; 0.000000; 0.000000; 0.000000; 0.000000; 0.000000; 0.000000; 0.000000; 0.000000; 0.000000; 0.000000; 0.000000; 0000; 0000; -0.982908; -0.176481; 0.052413; 0.177244; -0.984114; 0.010251; 0.049772; 0.019366; 0.998573; 0.000000; 0.000000; 0.000000; 0; 0.000000; 0.000000; 0.000000; 0.000000; -1; 88; 72; 1; 37; 24; 0; 73; 20; 0; 119; 24; 0; 158; 2; 0; 9; 56; 0; 51; 54; 0; 85; 54; 0; 119; 54; 0; 149; 54; 0; 17; 84; 0; 51; 90; 0; 85; 90; 0; 119; 90; 0; 149; 90; 0; 7; 115; 1; 38; 109; 0; 85; 119; 1; 118; 118; 1; 144; 119; 0; 0; 0; 0; 0; 0; 0; 0; 0; 0; 0; 0; 0; 0; 0; 0; 0; 0; 0; 0; 0; 0; 0; 0; 0; 0; 0; 0; 0; 0; 0; 0; 0; 0; 0; 0; 0; 0; 0; 0; 0; 0; 0; 0; 0; 0; 0; 0; 0; 0; 0; 0; 0; 0; 0; 0.000000; 0.000000; 0.000000; 0.000000; 0.000000; 0.000000; 0.000000; 0.000000; 0.000000; 0.000000; 0.000000; 0.000000; 0.000000; 0.000000; 0.000000; 0.000000; 0.000000; 0.000000; 0.000000; 0.000000; 0.000000; 0.000000; 0.000000; 0.000000; 0.000000; 0.000000; 4928; 0
0; 2412380180;919.677476; 2064; 1988; 3060; 1733; 1461; 1654; 1956; 0701; 11944; 0000; 1705; 1672; 0000; 0000; 3758; 0000; 21218; 0000; 0120; 49.593567; 1514;  9.361301;  31.958183; -991.206055; -0.119870;  0.096244;  0.112018; -0.137264;  0.624357;  0.000000;  540.000000; -1846.000000;  -1212; -2415; 52956; 0000; 0000; -38059; -34508; 000000;  3.565704; -2.971961;  0.000000; 0000; 0000; 0000; 0000; 0000; 290717696; 000; 000; 000; 000; 255; 255; 255; 255; 156; 135; -0.004717;  346.101318; -55; 029; -23; -20.057739; 000; 000; 000;  0.000000; 0000; 0000; 0000; 0000; 0209; 0.000000; 0000; 0209;  0.000000;  0.000000;  0.000000; 0; 0;  1.500000;-0.042159; 0.056241;-0.021170;  0.000000;  0.000000;  0.000000; 0; -0.049795;  0.019375;  2.963184; -0.000020;  0.000009;  0.000009;  209; 919.661430; 0049; -2852.000000;  1110.000000;  169778.000000; 0209; 0.000000; 0.000000; 0.000000 ; 16674; 0.000000; 0.000000; 0.000000; 0.000000; 0.000000; 0.000000; 0.000000; 0.000000; 0.000000; 0.000000; 0.000000; 0.000000; 0000; 0000; -0.982908; -0.176479; 0.052413; 0.177241; -0.984114; 0.010242; 0.049773; 0.019357; 0.998573; 0.000000; 0.000000; 0.000000; 0; 0.000000; 0.000000; 0.000000; 0.000000; -1; 88; 72; 1; 37; 24; 0; 73; 20; 0; 119; 24; 0; 158; 2; 0; 9; 56; 0; 51; 54; 0; 85; 54; 0; 119; 54; 0; 149; 54; 0; 17; 84; 0; 51; 90; 0; 85; 90; 0; 119; 90; 0; 149; 90; 0; 7; 115; 1; 38; 109; 0; 85; 119; 1; 118; 118; 1; 144; 119; 0; 0; 0; 0; 0; 0; 0; 0; 0; 0; 0; 0; 0; 0; 0; 0; 0; 0; 0; 0; 0; 0; 0; 0; 0; 0; 0; 0; 0; 0; 0; 0; 0; 0; 0; 0; 0; 0; 0; 0; 0; 0; 0; 0; 0; 0; 0; 0; 0; 0; 0; 0; 0; 0; 0; 0.000000; 0.000000; 0.000000; 0.000000; 0.000000; 0.000000; 0.000000; 0.000000; 0.000000; 0.000000; 0.000000; 0.000000; 0.000000; 0.000000; 0.000000; 0.000000; 0.000000; 0.000000; 0.000000; 0.000000; 0.000000; 0.000000; 0.000000; 0.000000; 0.000000; 0.000000; 4941; 0
0; 2412380180;919.682505; 2064; 1988; 3060; 1733; 1461; 1654; 1953; 0700; 11944; 0000; 1705; 1671; 0000; 0000; 3758; 0000; 21353; 0000; 0120; 49.594841; 1514;  10.004829;  31.974586; -991.200439; -0.311221;  0.116334;  0.066129; -0.137268;  0.624372;  0.000000;  578.000000; -1847.000000;  -1212; -2415; 52956; 0000; 0000; -38059; -34508; 000000;  3.565704; -2.971961;  0.000000; 0000; 0000; 0000; 0000; 0000; 290717696; 000; 000; 000; 000; 255; 255; 255; 255; 156; 135; -0.004717;  346.101318; -55; 029; -23; -20.057739; 000; 000; 000;  0.000000; 0000; 0000; 0000; 0000; 0209; 0.000000; 0000; 0209;  0.000000;  0.000000;  0.000000; 0; 0;  1.500000;-0.042159; 0.056241;-0.021170;  0.000000;  0.000000;  0.000000; 0; -0.049794;  0.019382;  2.963187;  0.000009;  0.000030;  0.000018;  209; 919.678147; 0049; -2852.000000;  1109.000000;  169778.000000; 0209; 0.000000; 0.000000; 0.000000 ; 16674; 0.000000; 0.000000; 0.000000; 0.000000; 0.000000; 0.000000; 0.000000; 0.000000; 0.000000; 0.000000; 0.000000; 0.000000; 0000; 0000; -0.982908; -0.176481; 0.052407; 0.177242; -0.984114; 0.010218; 0.049771; 0.019332; 0.998574; 0.000000; 0.000000; 0.000000; 0; 0.000000; 0.000000; 0.000000; 0.000000; -1; 88; 72; 1; 37; 24; 0; 73; 20; 0; 119; 24; 0; 158; 2; 0; 9; 56; 0; 51; 54; 0; 85; 54; 0; 119; 54; 0; 149; 54; 0; 17; 84; 0; 51; 90; 0; 85; 90; 0; 119; 90; 0; 149; 90; 0; 7; 115; 1; 38; 109; 0; 85; 119; 1; 118; 118; 1; 144; 119; 0; 0; 0; 0; 0; 0; 0; 0; 0; 0; 0; 0; 0; 0; 0; 0; 0; 0; 0; 0; 0; 0; 0; 0; 0; 0; 0; 0; 0; 0; 0; 0; 0; 0; 0; 0; 0; 0; 0; 0; 0; 0; 0; 0; 0; 0; 0; 0; 0; 0; 0; 0; 0; 0; 0; 0.000000; 0.000000; 0.000000; 0.000000; 0.000000; 0.000000; 0.000000; 0.000000; 0.000000; 0.000000; 0.000000; 0.000000; 0.000000; 0.000000; 0.000000; 0.000000; 0.000000; 0.000000; 0.000000; 0.000000; 0.000000; 0.000000; 0.000000; 0.000000; 0.000000; 0.000000; 4991; 0
0; 2412380180;919.687475; 2064; 1988; 3064; 1734; 1460; 1654; 1955; 0699; 11944; 0000; 1705; 1672; 0000; 0000; 3758; 0000; 21490; 0000; 0120; 49.594551; 1515;  9.249805;  31.981346; -993.070068; -0.260729; -0.009296;  0.066924; -0.137271;  0.624391;  0.000000;  533.000000; -1844.000000;  -1212; -2415; 52956; 0000; 0000; -38059; -34508; 000000;  3.565704; -2.971961;  0.000000; 0000; 0000; 0000; 0000; 0000; 290717696; 000; 000; 000; 000; 255; 255; 255; 255; 156; 135; -0.004717;  346.101318; -55; 029; -23; -20.057739; 000; 000; 000;  0.000000; 0000; 0000; 0000; 0000; 0209; 0.000000; 0000; 0209;  0.000000;  0.000000;  0.000000; 0; 0;  1.500000;-0.042159; 0.056241;-0.021170;  0.000000;  0.000000;  0.000000; 0; -0.049794;  0.019382;  2.963187;  0.000009;  0.000030;  0.000018;  209; 919.678147; 0049; -2853.000000;  1107.000000;  169777.000000; 0209; 0.000000; 0.000000; 0.000000 ; 16675; 0.000000; 0.000000; 0.000000; 0.000000; 0.000000; 0.000000; 0.000000; 0.000000; 0.000000; 0.000000; 0.000000; 0.000000; 0000; 0000; -0.982907; -0.176483; 0.052413; 0.177243; -0.984114; 0.010195; 0.049781; 0.019311; 0.998573; 0.000000; 0.000000; 0.000000; 0; 0.000000; 0.000000; 0.000000; 0.000000; -1; 88; 72; 1; 37; 24; 0; 73; 20; 0; 119; 24; 0; 158; 2; 0; 9; 56; 0; 51; 54; 0; 85; 54; 0; 119; 54; 0; 149; 54; 0; 17; 84; 0; 51; 90; 0; 85; 90; 0; 119; 90; 0; 149; 90; 0; 7; 115; 1; 38; 109; 0; 85; 119; 1; 118; 118; 1; 144; 119; 0; 0; 0; 0; 0; 0; 0; 0; 0; 0; 0; 0; 0; 0; 0; 0; 0; 0; 0; 0; 0; 0; 0; 0; 0; 0; 0; 0; 0; 0; 0; 0; 0; 0; 0; 0; 0; 0; 0; 0; 0; 0; 0; 0; 0; 0; 0; 0; 0; 0; 0; 0; 0; 0; 0; 0.000000; 0.000000; 0.000000; 0.000000; 0.000000; 0.000000; 0.000000; 0.000000; 0.000000; 0.000000; 0.000000; 0.000000; 0.000000; 0.000000; 0.000000; 0.000000; 0.000000; 0.000000; 0.000000; 0.000000; 0.000000; 0.000000; 0.000000; 0.000000; 0.000000; 0.000000; 4930; 0
0; 2412380180;919.692443; 2064; 1988; 3064; 1733; 1461; 1654; 1954; 0699; 11944; 0000; 1705; 1671; 0000; 0000; 3758; 0000; 21625; 0000; 0120; 49.594261; 1514;  7.755463;  32.005127; -993.866455; -0.200326; -0.038337;  0.087962; -0.137275;  0.624417;  0.000000;  446.000000; -1844.000000;  -1212; -2415; 52956; 0000; 0000; -38059; -34508; 000000;  3.565704; -2.971961;  0.000000; 0000; 0000; 0000; 0000; 0000; 290717696; 000; 000; 000; 000; 255; 255; 255; 255; 156; 135; -0.004717;  346.101318; -55; 029; -23; -20.057739; 000; 000; 000;  0.000000; 0000; 0000; 0000; 0000; 0209; 0.000000; 0000; 0209;  0.000000;  0.000000;  0.000000; 0; 0;  1.500000;-0.042159; 0.056241;-0.021170;  0.000000;  0.000000;  0.000000; 0; -0.049794;  0.019382;  2.963187;  0.000009;  0.000030;  0.000018;  209; 919.678147; 0049; -2854.000000;  1106.000000;  169778.000000; 0209; 0.000000; 0.000000; 0.000000 ; 16675; 0.000000; 0.000000; 0.000000; 0.000000; 0.000000; 0.000000; 0.000000; 0.000000; 0.000000; 0.000000; 0.000000; 0.000000; 0000; 0000; -0.982907; -0.176482; 0.052428; 0.177242; -0.984115; 0.010177; 0.049799; 0.019295; 0.998573; 0.000000; 0.000000; 0.000000; 0; 0.000000; 0.000000; 0.000000; 0.000000; -1; 88; 72; 1; 37; 24; 0; 73; 20; 0; 119; 24; 0; 158; 2; 0; 9; 56; 0; 51; 54; 0; 85; 54; 0; 119; 54; 0; 149; 54; 0; 17; 84; 0; 51; 90; 0; 85; 90; 0; 119; 90; 0; 149; 90; 0; 7; 115; 1; 38; 109; 0; 85; 119; 1; 118; 118; 1; 144; 119; 0; 0; 0; 0; 0; 0; 0; 0; 0; 0; 0; 0; 0; 0; 0; 0; 0; 0; 0; 0; 0; 0; 0; 0; 0; 0; 0; 0; 0; 0; 0; 0; 0; 0; 0; 0; 0; 0; 0; 0; 0; 0; 0; 0; 0; 0; 0; 0; 0; 0; 0; 0; 0; 0; 0; 0.000000; 0.000000; 0.000000; 0.000000; 0.000000; 0.000000; 0.000000; 0.000000; 0.000000; 0.000000; 0.000000; 0.000000; 0.000000; 0.000000; 0.000000; 0.000000; 0.000000; 0.000000; 0.000000; 0.000000; 0.000000; 0.000000; 0.000000; 0.000000; 0.000000; 0.000000; 4927; 0
0; 2412380180;919.697469; 2064; 1988; 3064; 1734; 1460; 1654; 1956; 0700; 11944; 0000; 1706; 1671; 0772; 2097; 0000; 0000; 21763; 0000; 0120; 49.595535; 1514;  8.734936;  32.041267; -995.073975; -0.000908;  0.192736;  0.084511; -0.137278;  0.624438;  0.000000;  502.000000; -1844.000000;  -1212; -2415; 52956; 0000; 0000; -38059; -34508; 000000;  3.565704; -2.971961;  0.000000; 0000; 0000; 0000; 0000; 0000; 290717696; 000; 000; 000; 000; 255; 255; 255; 255; 156; 135; -0.004717;  346.101318; -55; 029; -23; -20.057739; 000; 000; 000;  0.000000; 0000; 0000; 0000; 0000; 0209; 0.000000; 0000; 0209;  0.000000;  0.000000;  0.000000; 0; 0;  1.500000;-0.042159; 0.056241;-0.021170;  0.000000;  0.000000;  0.000000; 0; -0.049794;  0.019382;  2.963187; -0.000067;  0.000020;  0.000024;  209; 919.678147; 0049; -2854.000000;  1107.000000;  169778.000000; 0209; 0.000000; 0.000000; 0.000000 ; 16675; 0.000000; 0.000000; 0.000000; 0.000000; 0.000000; 0.000000; 0.000000; 0.000000; 0.000000; 0.000000; 0.000000; 0.000000; 0000; 0000; -0.982907; -0.176482; 0.052422; 0.177241; -0.984115; 0.010180; 0.049793; 0.019297; 0.998573; 0.000000; 0.000000; 0.000000; 0; 0.000000; 0.000000; 0.000000; 0.000000; -1; 88; 72; 1; 37; 24; 0; 73; 20; 0; 119; 24; 0; 158; 2; 0; 9; 56; 0; 51; 54; 0; 85; 54; 0; 119; 54; 0; 149; 54; 0; 17; 84; 0; 51; 90; 0; 85; 90; 0; 119; 90; 0; 149; 90; 0; 7; 115; 1; 38; 109; 0; 85; 119; 1; 118; 118; 1; 144; 119; 0; 0; 0; 0; 0; 0; 0; 0; 0; 0; 0; 0; 0; 0; 0; 0; 0; 0; 0; 0; 0; 0; 0; 0; 0; 0; 0; 0; 0; 0; 0; 0; 0; 0; 0; 0; 0; 0; 0; 0; 0; 0; 0; 0; 0; 0; 0; 0; 0; 0; 0; 0; 0; 0; 0; 0.000000; 0.000000; 0.000000; 0.000000; 0.000000; 0.000000; 0.000000; 0.000000; 0.000000; 0.000000; 0.000000; 0.000000; 0.000000; 0.000000; 0.000000; 0.000000; 0.000000; 0.000000; 0.000000; 0.000000; 0.000000; 0.000000; 0.000000; 0.000000; 0.000000; 0.000000; 4989; 0
0; 2412380180;919.702452; 2064; 1988; 3068; 1734; 1461; 1654; 1955; 0700; 11944; 0000; 1705; 1671; 2212; 2337; 0001; 0000; 21898; 0000; 0120; 49.595238; 1515;  8.138571;  32.088783; -997.350098;  0.043229;  0.026379;  0.080622; -0.137281;  0.624462;  0.000000;  467.000000; -1842.000000;  -1212; -2415; 52956; 0000; 0000; -38059; -34508; 000000;  3.565704; -2.971961;  0.000000; 0000; 0000; 0000; 0000; 0000; 290717696; 000; 000; 000; 000; 255; 255; 255; 255; 156; 135; -0.004717;  346.101318; -55; 029; -23; -20.057739; 000; 000; 000;  0.000000; 0000; 0000; 0000; 0000; 0209; 0.000000; 0000; 0209;  0.000000;  0.000000;  0.000000; 0; 0;  1.500000;-0.042159; 0.056241;-0.021170;  0.000000;  0.000000;  0.000000; 0; -0.049819;  0.019320;  2.963185; -0.000067;  0.000020;  0.000024;  209; 919.694673; 0049; -2854.000000;  1107.000000;  169778.000000; 0209; 0.000000; 0.000000; 0.000000 ; 16675; 0.000000; 0.000000; 0.000000; 0.000000; 0.000000; 0.000000; 0.000000; 0.000000; 0.000000; 0.000000; 0.000000; 0.000000; 0000; 0000; -0.982907; -0.176481; 0.052433; 0.177241; -0.984115; 0.010183; 0.049803; 0.019302; 0.998573; 0.000000; 0.000000; 0.000000; 0; 0.000000; 0.000000; 0.000000; 0.000000; -1; 88; 72; 1; 37; 24; 0; 73; 20; 0; 119; 24; 0; 158; 2; 0; 9; 56; 0; 51; 54; 0; 85; 54; 0; 119; 54; 0; 149; 54; 0; 17; 84; 0; 51; 90; 0; 85; 90; 0; 119; 90; 0; 149; 90; 0; 7; 115; 1; 38; 109; 0; 85; 119; 1; 118; 118; 1; 144; 119; 0; 0; 0; 0; 0; 0; 0; 0; 0; 0; 0; 0; 0; 0; 0; 0; 0; 0; 0; 0; 0; 0; 0; 0; 0; 0; 0; 0; 0; 0; 0; 0; 0; 0; 0; 0; 0; 0; 0; 0; 0; 0; 0; 0; 0; 0; 0; 0; 0; 0; 0; 0; 0; 0; 0; 0.000000; 0.000000; 0.000000; 0.000000; 0.000000; 0.000000; 0.000000; 0.000000; 0.000000; 0.000000; 0.000000; 0.000000; 0.000000; 0.000000; 0.000000; 0.000000; 0.000000; 0.000000; 0.000000; 0.000000; 0.000000; 0.000000; 0.000000; 0.000000; 0.000000; 0.000000; 4946; 0
0; 2412380180;919.707445; 2064; 1988; 3068; 1733; 1460; 1655; 1954; 0701; 11944; 0000; 1705; 1671; 0000; 0000; 3758; 0000; 22033; 0000; 0120; 49.594940; 1514;  8.900557;  32.093849; -997.661865; -0.111106;  0.168316;  0.006381; -0.137283;  0.624481;  0.000000;  510.000000; -1842.000000;  -1212; -2415; 52956; 0000; 0000; -38059; -34508; 000000;  3.565704; -2.971961;  0.000000; 0000; 0000; 0000; 0000; 0000; 290717696; 000; 000; 000; 000; 255; 255; 255; 255; 156; 135; -0.004717;  346.101318; -55; 029; -23; -20.057739; 000; 000; 000;  0.000000; 0000; 0000; 0000; 0000; 0209; 0.000000; 0000; 0209;  0.000000;  0.000000;  0.000000; 0; 0;  1.500000;-0.042159; 0.056241;-0.021170;  0.000000;  0.000000;  0.000000; 0; -0.049819;  0.019320;  2.963185; -0.000067;  0.000020;  0.000024;  209; 919.694673; 0049; -2854.000000;  1106.000000;  169777.000000; 0209; 0.000000; 0.000000; 0.000000 ; 16675; 0.000000; 0.000000; 0.000000; 0.000000; 0.000000; 0.000000; 0.000000; 0.000000; 0.000000; 0.000000; 0.000000; 0.000000; 0000; 0000; -0.982906; -0.176487; 0.052427; 0.177247; -0.984114; 0.010175; 0.049798; 0.019294; 0.998573; 0.000000; 0.000000; 0.000000; 0; 0.000000; 0.000000; 0.000000; 0.000000; -1; 88; 72; 1; 37; 24; 0; 73; 20; 0; 119; 24; 0; 158; 2; 0; 9; 56; 0; 51; 54; 0; 85; 54; 0; 119; 54; 0; 149; 54; 0; 17; 84; 0; 51; 90; 0; 85; 90; 0; 119; 90; 0; 149; 90; 0; 7; 115; 1; 38; 109; 0; 85; 119; 1; 118; 118; 1; 144; 119; 0; 0; 0; 0; 0; 0; 0; 0; 0; 0; 0; 0; 0; 0; 0; 0; 0; 0; 0; 0; 0; 0; 0; 0; 0; 0; 0; 0; 0; 0; 0; 0; 0; 0; 0; 0; 0; 0; 0; 0; 0; 0; 0; 0; 0; 0; 0; 0; 0; 0; 0; 0; 0; 0; 0; 0.000000; 0.000000; 0.000000; 0.000000; 0.000000; 0.000000; 0.000000; 0.000000; 0.000000; 0.000000; 0.000000; 0.000000; 0.000000; 0.000000; 0.000000; 0.000000; 0.000000; 0.000000; 0.000000; 0.000000; 0.000000; 0.000000; 0.000000; 0.000000; 0.000000; 0.000000; 4954; 0
0; 2412380180;919.712445; 2064; 1988; 3068; 1734; 1460; 1654; 1958; 0699; 11944; 0000; 1705; 1671; 0000; 0000; 3758; 0000; 22170; 0000; 0120; 49.596214; 1514;  9.089899;  32.129807; -999.342041;  0.074725;  0.244495;  0.029084; -0.137286;  0.624499;  0.000000;  520.000000; -1841.000000;  -1212; -2415; 52956; 0000; 0000; -38059; -34508; 000000;  3.565704; -2.971961;  0.000000; 0000; 0000; 0000; 0000; 0000; 290717696; 000; 000; 000; 000; 255; 255; 255; 255; 156; 135; -0.004717;  346.101318; -55; 029; -23; -20.057739; 000; 000; 000;  0.000000; 0000; 0000; 0000; 0000; 0209; 0.000000; 0000; 0209;  0.000000;  0.000000;  0.000000; 0; 0;  1.500000;-0.042159; 0.056241;-0.021170;  0.000000;  0.000000;  0.000000; 0; -0.049819;  0.019320;  2.963185; -0.000015;  0.000017;  0.000024;  209; 919.694673; 0049; -2853.000000;  1107.000000;  169777.000000; 0209; 0.000000; 0.000000; 0.000000 ; 16675; 0.000000; 0.000000; 0.000000; 0.000000; 0.000000; 0.000000; 0.000000; 0.000000; 0.000000; 0.000000; 0.000000; 0.000000; 0000; 0000; -0.982906; -0.176491; 0.052416; 0.177251; -0.984113; 0.010185; 0.049786; 0.019302; 0.998573; 0.000000; 0.000000; 0.000000; 0; 0.000000; 0.000000; 0.000000; 0.000000; -1; 88; 72; 1; 37; 24; 0; 73; 20; 0; 119; 24; 0; 158; 2; 0; 9; 56; 0; 51; 54; 0; 85; 54; 0; 119; 54; 0; 149; 54; 0; 17; 84; 0; 51; 90; 0; 85; 90; 0; 119; 90; 0; 149; 90; 0; 7; 115; 1; 38; 109; 0; 85; 119; 1; 118; 118; 1; 144; 119; 0; 0; 0; 0; 0; 0; 0; 0; 0; 0; 0; 0; 0; 0; 0; 0; 0; 0; 0; 0; 0; 0; 0; 0; 0; 0; 0; 0; 0; 0; 0; 0; 0; 0; 0; 0; 0; 0; 0; 0; 0; 0; 0; 0; 0; 0; 0; 0; 0; 0; 0; 0; 0; 0; 0; 0.000000; 0.000000; 0.000000; 0.000000; 0.000000; 0.000000; 0.000000; 0.000000; 0.000000; 0.000000; 0.000000; 0.000000; 0.000000; 0.000000; 0.000000; 0.000000; 0.000000; 0.000000; 0.000000; 0.000000; 0.000000; 0.000000; 0.000000; 0.000000; 0.000000; 0.000000; 4960; 0
0; 2412380180;919.717452; 2064; 1988; 3068; 1734; 1460; 1654; 1956; 0698; 11944; 0000; 1705; 1672; 0000; 0000; 3758; 0000; 22305; 0000; 0120; 49.597481; 1514;  8.601639;  32.132950; -999.580322; -0.119598;  0.140231; -0.002384; -0.137288;  0.624519;  0.000000;  492.000000; -1841.000000;  -1212; -2415; 52956; 0000; 0000; -38059; -34508; 000000;  3.565704; -2.971961;  0.000000; 0000; 0000; 0000; 0000; 0000; 290717696; 000; 000; 000; 000; 255; 255; 255; 255; 156; 135; -0.004717;  346.101318; -55; 029; -23; -20.057739; 000; 000; 000;  0.000000; 0000; 0000; 0000; 0000; 0209; 0.000000; 0000; 0209;  0.000000;  0.000000;  0.000000; 0; 0;  1.500000;-0.042159; 0.056241;-0.021170;  0.000000;  0.000000;  0.000000; 0; -0.049819;  0.019319;  2.963181; -0.000015;  0.000017;  0.000024;  209; 919.711302; 0049; -2853.000000;  1106.000000;  169777.000000; 0209; 0.000000; 0.000000; 0.000000 ; 16675; 0.000000; 0.000000; 0.000000; 0.000000; 0.000000; 0.000000; 0.000000; 0.000000; 0.000000; 0.000000; 0.000000; 0.000000; 0000; 0000; -0.982905; -0.176498; 0.052413; 0.177258; -0.984112; 0.010176; 0.049784; 0.019293; 0.998574; 0.000000; 0.000000; 0.000000; 0; 0.000000; 0.000000; 0.000000; 0.000000; -1; 88; 72; 1; 37; 24; 0; 73; 20; 0; 119; 24; 0; 158; 2; 0; 9; 56; 0; 51; 54; 0; 85; 54; 0; 119; 54; 0; 149; 54; 0; 17; 84; 0; 51; 90; 0; 85; 90; 0; 119; 90; 0; 149; 90; 0; 7; 115; 1; 38; 109; 0; 85; 119; 1; 118; 118; 1; 144; 119; 0; 0; 0; 0; 0; 0; 0; 0; 0; 0; 0; 0; 0; 0; 0; 0; 0; 0; 0; 0; 0; 0; 0; 0; 0; 0; 0; 0; 0; 0; 0; 0; 0; 0; 0; 0; 0; 0; 0; 0; 0; 0; 0; 0; 0; 0; 0; 0; 0; 0; 0; 0; 0; 0; 0; 0.000000; 0.000000; 0.000000; 0.000000; 0.000000; 0.000000; 0.000000; 0.000000; 0.000000; 0.000000; 0.000000; 0.000000; 0.000000; 0.000000; 0.000000; 0.000000; 0.000000; 0.000000; 0.000000; 0.000000; 0.000000; 0.000000; 0.000000; 0.000000; 0.000000; 0.000000; 4970; 0
0; 2412380180;919.722442; 2064; 1988; 3068; 1734; 1461; 1654; 1955; 0701; 11944; 0000; 1705; 1671; 0000; 0000; 3758; 0000; 22442; 0000; 0120; 49.598740; 1515;  8.643152;  32.122810; -999.024902;  0.068333;  0.261404;  0.043262; -0.137290;  0.624540;  0.000000;  495.000000; -1841.000000;  -1212; -2415; 52956; 0000; 0000; -38059; -34508; 000000;  3.565704; -2.971961;  0.000000; 0000; 0000; 0000; 0000; 0000; 290717696; 000; 000; 000; 000; 255; 255; 255; 255; 156; 135; -0.004717;  346.101318; -55; 029; -23; -20.057739; 000; 000; 000;  0.000000; 0000; 0000; 0000; 0000; 0209; 0.000000; 0000; 0209;  0.000000;  0.000000;  0.000000; 0; 0;  1.500000;-0.042159; 0.056241;-0.021170;  0.000000;  0.000000;  0.000000; 0; -0.049819;  0.019319;  2.963181; -0.000015;  0.000017;  0.000024;  209; 919.711302; 0049; -2852.000000;  1107.000000;  169776.000000; 0209; 0.000000; 0.000000; 0.000000 ; 16675; 0.000000; 0.000000; 0.000000; 0.000000; 0.000000; 0.000000; 0.000000; 0.000000; 0.000000; 0.000000; 0.000000; 0.000000; 0000; 0000; -0.982905; -0.176501; 0.052403; 0.177260; -0.984112; 0.010186; 0.049772; 0.019300; 0.998574; 0.000000; 0.000000; 0.000000; 0; 0.000000; 0.000000; 0.000000; 0.000000; -1; 88; 72; 1; 37; 24; 0; 73; 20; 0; 119; 24; 0; 158; 2; 0; 9; 56; 0; 51; 54; 0; 85; 54; 0; 119; 54; 0; 149; 54; 0; 17; 84; 0; 51; 90; 0; 85; 90; 0; 119; 90; 0; 149; 90; 0; 7; 115; 1; 38; 109; 0; 85; 119; 1; 118; 118; 1; 144; 119; 0; 0; 0; 0; 0; 0; 0; 0; 0; 0; 0; 0; 0; 0; 0; 0; 0; 0; 0; 0; 0; 0; 0; 0; 0; 0; 0; 0; 0; 0; 0; 0; 0; 0; 0; 0; 0; 0; 0; 0; 0; 0; 0; 0; 0; 0; 0; 0; 0; 0; 0; 0; 0; 0; 0; 0.000000; 0.000000; 0.000000; 0.000000; 0.000000; 0.000000; 0.000000; 0.000000; 0.000000; 0.000000; 0.000000; 0.000000; 0.000000; 0.000000; 0.000000; 0.000000; 0.000000; 0.000000; 0.000000; 0.000000; 0.000000; 0.000000; 0.000000; 0.000000; 0.000000; 0.000000; 4951; 0
0; 2412380180;919.727446; 2064; 1988; 3068; 1734; 1461; 1654; 1958; 0701; 11944; 0000; 1705; 1671; 0000; 0000; 3758; 0000; 22577; 0000; 0120; 49.598434; 1513;  8.814014;  32.133781; -999.489258;  0.172322;  0.040988;  0.120595; -0.137293;  0.624559;  0.000000;  504.000000; -1841.000000;  -1212; -2415; 52956; 0000; 0000; -38059; -34508; 000000;  3.565704; -2.971961;  0.000000; 0000; 0000; 0000; 0000; 0000; 290717696; 000; 000; 000; 000; 255; 255; 255; 255; 156; 135; -0.004717;  346.101318; -55; 029; -23; -20.057739; 000; 000; 000;  0.000000; 0000; 0000; 0000; 0000; 0209; 0.000000; 0000; 0209;  0.000000;  0.000000;  0.000000; 0; 0;  1.500000;-0.042159; 0.056241;-0.021170;  0.000000;  0.000000;  0.000000; 0; -0.049819;  0.019319;  2.963181; -0.000015;  0.000017;  0.000024;  209; 919.711302; 0049; -2853.000000;  1108.000000;  169777.000000; 0209; 0.000000; 0.000000; 0.000000 ; 16675; 0.000000; 0.000000; 0.000000; 0.000000; 0.000000; 0.000000; 0.000000; 0.000000; 0.000000; 0.000000; 0.000000; 0.000000; 0000; 0000; -0.982905; -0.176496; 0.052412; 0.177257; -0.984112; 0.010200; 0.049779; 0.019316; 0.998573; 0.000000; 0.000000; 0.000000; 0; 0.000000; 0.000000; 0.000000; 0.000000; -1; 88; 72; 1; 37; 24; 0; 73; 20; 0; 119; 24; 0; 158; 2; 0; 9; 56; 0; 51; 54; 0; 85; 54; 0; 119; 54; 0; 149; 54; 0; 17; 84; 0; 51; 90; 0; 85; 90; 0; 119; 90; 0; 149; 90; 0; 7; 115; 1; 38; 109; 0; 85; 119; 1; 118; 118; 1; 144; 119; 0; 0; 0; 0; 0; 0; 0; 0; 0; 0; 0; 0; 0; 0; 0; 0; 0; 0; 0; 0; 0; 0; 0; 0; 0; 0; 0; 0; 0; 0; 0; 0; 0; 0; 0; 0; 0; 0; 0; 0; 0; 0; 0; 0; 0; 0; 0; 0; 0; 0; 0; 0; 0; 0; 0; 0.000000; 0.000000; 0.000000; 0.000000; 0.000000; 0.000000; 0.000000; 0.000000; 0.000000; 0.000000; 0.000000; 0.000000; 0.000000; 0.000000; 0.000000; 0.000000; 0.000000; 0.000000; 0.000000; 0.000000; 0.000000; 0.000000; 0.000000; 0.000000; 0.000000; 0.000000; 4964; 0
0; 2412380180;919.773035; 2064; 1984; 3064; 1733; 1460; 1654; 1954; 0699; 11944; 0000; 1706; 1671; 0000; 0000; 3758; 0000; 23802; 0000; 0120; 49.600365; 1514;  8.511936;  35.632721; -995.180908; -0.211430;  0.146080;  0.039811; -0.137189;  0.624756;  0.000000;  489.000000; -2050.000000;  -1212; -2415; 52956; 0000; 0000; -38059; -34508; 000000;  3.565704; -2.971961;  0.000000; 0000; 0000; 0000; 0000; 0000; 290717696; 000; 000; 000; 000; 255; 255; 255; 255; 156; 135; -0.004717;  346.101318; -55; 029; -23; -20.057739; 000; 000; 000;  0.000000; 0000; 0000; 0000; 0000; 0209; 0.000000; 0000; 0209;  0.000000;  0.000000;  0.000000; 0; 0;  1.500000;-0.042159; 0.056241;-0.021170;  0.000000;  0.000000;  0.000000; 0; -0.049805;  0.019347;  2.963171;  0.000000;  0.000000;  0.000000;  209; 919.761167; 0049; -2851.000000;  1102.000000;  169776.000000; 0209; 0.000000; 0.000000; 0.000000 ; 16676; 0.000000; 0.000000; 0.000000; 0.000000; 0.000000; 0.000000; 0.000000; 0.000000; 0.000000; 0.000000; 0.000000; 0.000000; 0000; 0000; -0.982904; -0.176515; 0.052365; 0.177270; -0.984110; 0.010104; 0.049750; 0.019214; 0.998577; 0.000000; 0.000000; 0.000000; 0; 0.000000; 0.000000; 0.000000; 0.000000; -1; 88; 72; 1; 37; 24; 0; 73; 20; 0; 119; 24; 0; 158; 2; 0; 9; 56; 0; 51; 54; 0; 85; 54; 0; 119; 54; 0; 149; 54; 0; 17; 84; 0; 51; 90; 0; 85; 90; 0; 119; 90; 0; 149; 90; 0; 7; 115; 1; 38; 109; 0; 85; 119; 1; 118; 118; 1; 144; 119; 0; 0; 0; 0; 0; 0; 0; 0; 0; 0; 0; 0; 0; 0; 0; 0; 0; 0; 0; 0; 0; 0; 0; 0; 0; 0; 0; 0; 0; 0; 0; 0; 0; 0; 0; 0; 0; 0; 0; 0; 0; 0; 0; 0; 0; 0; 0; 0; 0; 0; 0; 0; 0; 0; 0; 0.000000; 0.000000; 0.000000; 0.000000; 0.000000; 0.000000; 0.000000; 0.000000; 0.000000; 0.000000; 0.000000; 0.000000; 0.000000; 0.000000; 0.000000; 0.000000; 0.000000; 0.000000; 0.000000; 0.000000; 0.000000; 0.000000; 0.000000; 0.000000; 0.000000; 0.000000; 304; 0
0; 2412380180;919.777409; 2064; 1988; 3064; 1733; 1460; 1655; 1956; 0699; 11944; 0000; 1705; 1671; 0773; 2097; 0000; 0001; 23937; 0000; 0120; 49.601616; 1514;  8.516298;  34.404640; -994.888184; -0.164070;  0.215055;  0.043827; -0.137180;  0.624778;  0.000000;  490.000000; -1980.000000;  -1212; -2415; 52956; 0000; 0000; -38059; -34508; 000000;  3.565704; -2.971961;  0.000000; 0000; 0000; 0000; 0000; 0000; 290717696; 000; 000; 000; 000; 255; 255; 255; 255; 156; 135; -0.004717;  346.101318; -55; 029; -23; -20.057739; 000; 000; 000;  0.000000; 0000; 0000; 0000; 0000; 0210; 0.000000; 0000; 0210;  0.000000;  0.000000;  0.000000; 0; 0;  1.500000;-0.042159; 0.056241;-0.021170;  0.000000;  0.000000;  0.000000; 0; -0.049805;  0.019347;  2.963171;  0.000000;  0.000000;  0.000000;  209; 919.761167; 0049; -2851.000000;  1101.000000;  169776.000000; 0210; 0.000000; 0.000000; 0.000000 ; 16676; 0.000000; 0.000000; 0.000000; 0.000000; 0.000000; 0.000000; 0.000000; 0.000000; 0.000000; 0.000000; 0.000000; 0.000000; 0000; 0000; -0.982904; -0.176519; 0.052355; 0.177273; -0.984110; 0.010086; 0.049743; 0.019195; 0.998578; 0.000000; 0.000000; 0.000000; 0; 0.000000; 0.000000; 0.000000; 0.000000; -1; 88; 72; 1; 37; 24; 0; 73; 20; 0; 119; 24; 0; 158; 2; 0; 9; 56; 0; 51; 54; 0; 85; 54; 0; 119; 54; 0; 149; 54; 0; 17; 84; 0; 51; 90; 0; 85; 90; 0; 119; 90; 0; 149; 90; 0; 7; 115; 1; 38; 109; 0; 85; 119; 1; 118; 118; 1; 144; 119; 0; 0; 0; 0; 0; 0; 0; 0; 0; 0; 0; 0; 0; 0; 0; 0; 0; 0; 0; 0; 0; 0; 0; 0; 0; 0; 0; 0; 0; 0; 0; 0; 0; 0; 0; 0; 0; 0; 0; 0; 0; 0; 0; 0; 0; 0; 0; 0; 0; 0; 0; 0; 0; 0; 0; 0.000000; 0.000000; 0.000000; 0.000000; 0.000000; 0.000000; 0.000000; 0.000000; 0.000000; 0.000000; 0.000000; 0.000000; 0.000000; 0.000000; 0.000000; 0.000000; 0.000000; 0.000000; 0.000000; 0.000000; 0.000000; 0.000000; 0.000000; 0.000000; 0.000000; 0.000000; 4361; 0
0; 2412380244;919.782410; 2064; 1988; 3064; 1734; 1461; 1654; 1954; 0702; 11944; 0000; 1706; 1671; 2212; 2335; 0001; 0000; 24074; 0000; 0120; 49.601303; 1514;  8.541859;  33.797684; -995.085938; -0.041407;  0.054641;  0.024947; -0.137175;  0.624800;  0.000000;  491.000000; -1945.000000;  -1212; -2415; 52956; 0000; 0000; -38059; -34508; 000000;  3.565704; -2.971961;  0.000000; 0000; 0000; 0000; 0000; 0000; 290717696; 000; 000; 000; 000; 255; 255; 255; 255; 156; 135; -0.004717;  346.101318; -55; 029; -23; -20.057739; 000; 000; 000;  0.000000; 0000; 0000; 0000; 0000; 0210; 0.000000; 0000; 0210;  0.000000;  0.000000;  0.000000; 0; 0;  1.500000;-0.042159; 0.056241;-0.021170;  0.000000;  0.000000;  0.000000; 0; -0.049763;  0.019220;  2.963155; -0.000018;  0.000049;  0.000016;  210; 919.777817; 0049; -2851.000000;  1100.000000;  169776.000000; 0210; 0.000000; 0.000000; 0.000000 ; 16676; 0.000000; 0.000000; 0.000000; 0.000000; 0.000000; 0.000000; 0.000000; 0.000000; 0.000000; 0.000000; 0.000000; 0.000000; 0000; 0000; -0.982903; -0.176523; 0.052361; 0.177277; -0.984110; 0.010079; 0.049749; 0.019189; 0.998577; 0.000000; 0.000000; 0.000000; 0; 0.000000; 0.000000; 0.000000; 0.000000; -1; 88; 72; 1; 37; 24; 0; 73; 20; 0; 119; 24; 0; 158; 2; 0; 9; 56; 0; 51; 54; 0; 85; 54; 0; 119; 54; 0; 149; 54; 0; 17; 84; 0; 51; 90; 0; 85; 90; 0; 119; 90; 0; 149; 90; 0; 7; 115; 1; 38; 109; 0; 85; 119; 1; 118; 118; 1; 144; 119; 0; 0; 0; 0; 0; 0; 0; 0; 0; 0; 0; 0; 0; 0; 0; 0; 0; 0; 0; 0; 0; 0; 0; 0; 0; 0; 0; 0; 0; 0; 0; 0; 0; 0; 0; 0; 0; 0; 0; 0; 0; 0; 0; 0; 0; 0; 0; 0; 0; 0; 0; 0; 0; 0; 0; 0.000000; 0.000000; 0.000000; 0.000000; 0.000000; 0.000000; 0.000000; 0.000000; 0.000000; 0.000000; 0.000000; 0.000000; 0.000000; 0.000000; 0.000000; 0.000000; 0.000000; 0.000000; 0.000000; 0.000000; 0.000000; 0.000000; 0.000000; 0.000000; 0.000000; 0.000000; 4962; 0
0; 2412380244;919.787392; 2064; 1984; 3064; 1734; 1460; 1654; 1956; 0699; 11944; 0000; 1705; 1672; 0000; 0000; 3758; 0000; 24209; 0000; 0120; 49.600990; 1514;  8.552076;  33.505157; -995.212646; -0.124316;  0.320972;  0.025600; -0.137171;  0.624822;  0.000000;  492.000000; -1928.000000;  -1212; -2415; 52956; 0000; 0000; -38059; -34508; 000000;  3.565704; -2.971961;  0.000000; 0000; 0000; 0000; 0000; 0000; 290717696; 000; 000; 000; 000; 255; 255; 255; 255; 156; 135; -0.004717;  346.101318; -55; 029; -23; -20.057739; 000; 000; 000;  0.000000; 0000; 0000; 0000; 0000; 0210; 0.000000; 0000; 0210;  0.000000;  0.000000;  0.000000; 0; 0;  1.500000;-0.042159; 0.056241;-0.021170;  0.000000;  0.000000;  0.000000; 0; -0.049763;  0.019220;  2.963155; -0.000018;  0.000049;  0.000016;  210; 919.777817; 0049; -2850.000000;  1100.000000;  169775.000000; 0210; 0.000000; 0.000000; 0.000000 ; 16677; 0.000000; 0.000000; 0.000000; 0.000000; 0.000000; 0.000000; 0.000000; 0.000000; 0.000000; 0.000000; 0.000000; 0.000000; 0000; 0000; -0.982903; -0.176528; 0.052342; 0.177281; -0.984109; 0.010069; 0.049733; 0.019176; 0.998578; 0.000000; 0.000000; 0.000000; 0; 0.000000; 0.000000; 0.000000; 0.000000; -1; 88; 72; 1; 37; 24; 0; 73; 20; 0; 119; 24; 0; 158; 2; 0; 9; 56; 0; 51; 54; 0; 85; 54; 0; 119; 54; 0; 149; 54; 0; 17; 84; 0; 51; 90; 0; 85; 90; 0; 119; 90; 0; 149; 90; 0; 7; 115; 1; 38; 109; 0; 85; 119; 1; 118; 118; 1; 144; 119; 0; 0; 0; 0; 0; 0; 0; 0; 0; 0; 0; 0; 0; 0; 0; 0; 0; 0; 0; 0; 0; 0; 0; 0; 0; 0; 0; 0; 0; 0; 0; 0; 0; 0; 0; 0; 0; 0; 0; 0; 0; 0; 0; 0; 0; 0; 0; 0; 0; 0; 0; 0; 0; 0; 0; 0.000000; 0.000000; 0.000000; 0.000000; 0.000000; 0.000000; 0.000000; 0.000000; 0.000000; 0.000000; 0.000000; 0.000000; 0.000000; 0.000000; 0.000000; 0.000000; 0.000000; 0.000000; 0.000000; 0.000000; 0.000000; 0.000000; 0.000000; 0.000000; 0.000000; 0.000000; 4941; 0
0; 2412380244;919.792378; 2064; 1988; 3064; 1734; 1461; 1654; 1955; 0702; 11944; 0000; 1706; 1671; 0000; 0000; 3758; 0000; 24346; 0000; 0120; 49.602242; 1515;  8.573475;  32.162483; -995.233643;  0.092247; -0.051435;  0.029433; -0.137174;  0.624844;  0.000000;  493.000000; -1850.000000;  -1212; -2415; 52956; 0000; 0000; -38059; -34508; 000000;  3.565704; -2.971961;  0.000000; 0000; 0000; 0000; 0000; 0000; 290717696; 000; 000; 000; 000; 255; 255; 255; 255; 156; 135; -0.004717;  346.101318; -55; 029; -23; -20.057739; 000; 000; 000;  0.000000; 0000; 0000; 0000; 0000; 0210; 0.000000; 0000; 0210;  0.000000;  0.000000;  0.000000; 0; 0;  1.500000;-0.042159; 0.056241;-0.021170;  0.000000;  0.000000;  0.000000; 0; -0.049763;  0.019220;  2.963155; -0.000018;  0.000049;  0.000016;  210; 919.777817; 0049; -2851.000000;  1100.000000;  169775.000000; 0210; 0.000000; 0.000000; 0.000000 ; 16677; 0.000000; 0.000000; 0.000000; 0.000000; 0.000000; 0.000000; 0.000000; 0.000000; 0.000000; 0.000000; 0.000000; 0.000000; 0000; 0000; -0.982902; -0.176531; 0.052360; 0.177285; -0.984108; 0.010076; 0.049749; 0.019186; 0.998577; 0.000000; 0.000000; 0.000000; 0; 0.000000; 0.000000; 0.000000; 0.000000; -1; 88; 72; 1; 37; 24; 0; 73; 20; 0; 119; 24; 0; 158; 2; 0; 9; 56; 0; 51; 54; 0; 85; 54; 0; 119; 54; 0; 149; 54; 0; 17; 84; 0; 51; 90; 0; 85; 90; 0; 119; 90; 0; 149; 90; 0; 7; 115; 1; 38; 109; 0; 85; 119; 1; 118; 118; 1; 144; 119; 0; 0; 0; 0; 0; 0; 0; 0; 0; 0; 0; 0; 0; 0; 0; 0; 0; 0; 0; 0; 0; 0; 0; 0; 0; 0; 0; 0; 0; 0; 0; 0; 0; 0; 0; 0; 0; 0; 0; 0; 0; 0; 0; 0; 0; 0; 0; 0; 0; 0; 0; 0; 0; 0; 0; 0.000000; 0.000000; 0.000000; 0.000000; 0.000000; 0.000000; 0.000000; 0.000000; 0.000000; 0.000000; 0.000000; 0.000000; 0.000000; 0.000000; 0.000000; 0.000000; 0.000000; 0.000000; 0.000000; 0.000000; 0.000000; 0.000000; 0.000000; 0.000000; 0.000000; 0.000000; 4931; 0
0; 2412380244;919.797389; 2064; 1988; 3064; 1734; 1461; 1654; 1956; 0698; 11944; 0000; 1705; 1671; 0000; 0000; 3758; 0000; 0000; 0000; 0000; 49.601929; 1515;  8.547274;  33.592232; -995.172607;  0.118118;  0.000177;  0.103571; -0.137169;  0.624866;  0.000000;  491.000000; -1933.000000;  -1212; -2415; 52956; 0000; 0000; -38059; -34508; 000000;  3.565704; -2.971961;  0.000000; 0000; 0000; 0000; 0000; 0000; 290717696; 000; 000; 000; 000; 255; 255; 255; 255; 156; 135; -0.004717;  346.101318; -55; 029; -23; -20.057739; 000; 000; 000;  0.000000; 0000; 0000; 0000; 0000; 0210; 0.000000; 0000; 0210;  0.000000;  0.000000;  0.000000; 0; 0;  1.500000;-0.042159; 0.056241;-0.021170;  0.000000;  0.000000;  0.000000; 0; -0.049769;  0.019211;  2.963142; -0.000032;  0.000057;  0.000009;  210; 919.794428; 0049; -2852.000000;  1101.000000;  169775.000000; 0210; 0.000000; 0.000000; 0.000000 ; 16677; 0.000000; 0.000000; 0.000000; 0.000000; 0.000000; 0.000000; 0.000000; 0.000000; 0.000000; 0.000000; 0.000000; 0.000000; 0000; 0000; -0.982901; -0.176528; 0.052372; 0.177282; -0.984109; 0.010081; 0.049760; 0.019194; 0.998577; 0.000000; 0.000000; 0.000000; 0; 0.000000; 0.000000; 0.000000; 0.000000; -1; 88; 72; 1; 37; 24; 0; 73; 20; 0; 119; 24; 0; 158; 2; 0; 9; 56; 0; 51; 54; 0; 85; 54; 0; 119; 54; 0; 149; 54; 0; 17; 84; 0; 51; 90; 0; 85; 90; 0; 119; 90; 0; 149; 90; 0; 7; 115; 1; 38; 109; 0; 85; 119; 1; 118; 118; 1; 144; 119; 0; 0; 0; 0; 0; 0; 0; 0; 0; 0; 0; 0; 0; 0; 0; 0; 0; 0; 0; 0; 0; 0; 0; 0; 0; 0; 0; 0; 0; 0; 0; 0; 0; 0; 0; 0; 0; 0; 0; 0; 0; 0; 0; 0; 0; 0; 0; 0; 0; 0; 0; 0; 0; 0; 0; 0.000000; 0.000000; 0.000000; 0.000000; 0.000000; 0.000000; 0.000000; 0.000000; 0.000000; 0.000000; 0.000000; 0.000000; 0.000000; 0.000000; 0.000000; 0.000000; 0.000000; 0.000000; 0.000000; 0.000000; 0.000000; 0.000000; 0.000000; 0.000000; 0.000000; 0.000000; 4971; 0
0; 2412380244;919.802375; 2068; 1988; 3064; 1733; 1460; 1654; 1953; 0700; 11944; 0000; 1705; 1671; 0000; 0000; 3758; 0000; 0000; 0000; 0000; 49.601616; 1514;  10.029926;  32.582504; -995.181152; -0.020242;  0.113104;  0.081027; -0.137170;  0.624880;  0.000000;  577.000000; -1875.000000;  -1212; -2415; 52956; 0000; 0000; -38059; -34508; 000000;  3.565704; -2.971961;  0.000000; 0000; 0000; 0000; 0000; 0000; 290717696; 000; 000; 000; 000; 255; 255; 255; 255; 156; 135; -0.004717;  346.101318; -55; 029; -23; -20.057739; 000; 000; 000;  0.000000; 0000; 0000; 0000; 0000; 0210; 0.000000; 0000; 0210;  0.000000;  0.000000;  0.000000; 0; 0;  1.500000;-0.042159; 0.056241;-0.021170;  0.000000;  0.000000;  0.000000; 0; -0.049769;  0.019211;  2.963142; -0.000032;  0.000057;  0.000009;  210; 919.794428; 0049; -2852.000000;  1101.000000;  169775.000000; 0210; 0.000000; 0.000000; 0.000000 ; 16677; 0.000000; 0.000000; 0.000000; 0.000000; 0.000000; 0.000000; 0.000000; 0.000000; 0.000000; 0.000000; 0.000000; 0.000000; 0000; 0000; -0.982902; -0.176528; 0.052370; 0.177282; -0.984109; 0.010080; 0.049758; 0.019192; 0.998577; 0.000000; 0.000000; 0.000000; 0; 0.000000; 0.000000; 0.000000; 0.000000; -1; 88; 72; 1; 37; 24; 0; 73; 20; 0; 119; 24; 0; 158; 2; 0; 9; 56; 0; 51; 54; 0; 85; 54; 0; 119; 54; 0; 149; 54; 0; 17; 84; 0; 51; 90; 0; 85; 90; 0; 119; 90; 0; 149; 90; 0; 7; 115; 1; 38; 109; 0; 85; 119; 1; 118; 118; 1; 144; 119; 0; 0; 0; 0; 0; 0; 0; 0; 0; 0; 0; 0; 0; 0; 0; 0; 0; 0; 0; 0; 0; 0; 0; 0; 0; 0; 0; 0; 0; 0; 0; 0; 0; 0; 0; 0; 0; 0; 0; 0; 0; 0; 0; 0; 0; 0; 0; 0; 0; 0; 0; 0; 0; 0; 0; 0.000000; 0.000000; 0.000000; 0.000000; 0.000000; 0.000000; 0.000000; 0.000000; 0.000000; 0.000000; 0.000000; 0.000000; 0.000000; 0.000000; 0.000000; 0.000000; 0.000000; 0.000000; 0.000000; 0.000000; 0.000000; 0.000000; 0.000000; 0.000000; 0.000000; 0.000000; 4945; 0
0; 2412380180;919.807345; 2064; 1988; 3064; 1733; 1460; 1654; 1952; 0699; 11944; 0000; 1705; 1671; 0000; 0000; 3758; 0000; 0000; 0000; 0000; 49.601303; 1514;  9.541864;  31.638023; -995.221924; -0.092757;  0.018748;  0.113693; -0.137176;  0.624897;  0.000000;  549.000000; -1820.000000;  -1212; -2415; 52956; 0000; 0000; -38059; -34508; 000000;  3.565704; -2.971961;  0.000000; 0000; 0000; 0000; 0000; 0000; 290717696; 000; 000; 000; 000; 255; 255; 255; 255; 156; 135; -0.004717;  346.101318; -55; 029; -23; -20.057739; 000; 000; 000;  0.000000; 0000; 0000; 0000; 0000; 0210; 0.000000; 0000; 0210;  0.000000;  0.000000;  0.000000; 0; 0;  1.500000;-0.042159; 0.056241;-0.021170;  0.000000;  0.000000;  0.000000; 0; -0.049769;  0.019211;  2.963142; -0.000032;  0.000057;  0.000009;  210; 919.794428; 0049; -2852.000000;  1100.000000;  169775.000000; 0210; 0.000000; 0.000000; 0.000000 ; 16677; 0.000000; 0.000000; 0.000000; 0.000000; 0.000000; 0.000000; 0.000000; 0.000000; 0.000000; 0.000000; 0.000000; 0.000000; 0000; 0000; -0.982902; -0.176525; 0.052376; 0.177279; -0.984109; 0.010074; 0.049765; 0.019187; 0.998577; 0.000000; 0.000000; 0.000000; 0; 0.000000; 0.000000; 0.000000; 0.000000; -1; 88; 72; 1; 37; 24; 0; 73; 20; 0; 119; 24; 0; 158; 2; 0; 9; 56; 0; 51; 54; 0; 85; 54; 0; 119; 54; 0; 149; 54; 0; 17; 84; 0; 51; 90; 0; 85; 90; 0; 119; 90; 0; 149; 90; 0; 7; 115; 1; 38; 109; 0; 85; 119; 1; 118; 118; 1; 144; 119; 0; 0; 0; 0; 0; 0; 0; 0; 0; 0; 0; 0; 0; 0; 0; 0; 0; 0; 0; 0; 0; 0; 0; 0; 0; 0; 0; 0; 0; 0; 0; 0; 0; 0; 0; 0; 0; 0; 0; 0; 0; 0; 0; 0; 0; 0; 0; 0; 0; 0; 0; 0; 0; 0; 0; 0.000000; 0.000000; 0.000000; 0.000000; 0.000000; 0.000000; 0.000000; 0.000000; 0.000000; 0.000000; 0.000000; 0.000000; 0.000000; 0.000000; 0.000000; 0.000000; 0.000000; 0.000000; 0.000000; 0.000000; 0.000000; 0.000000; 0.000000; 0.000000; 0.000000; 0.000000; 4930; 0
0; 2412380180;919.812346; 2068; 1988; 3064; 1733; 1461; 1654; 1953; 0700; 11944; 0000; 1705; 1672; 0000; 0000; 3758; 0000; 0000; 0000; 0000; 49.600990; 1515;  11.636904;  32.342247; -995.185547; -0.351296;  0.208771;  0.067335; -0.137178;  0.624903;  0.000000;  669.000000; -1861.000000;  -1212; -2415; 52956; 0000; 0000; -38059; -34508; 000000;  3.565704; -2.971961;  0.000000; 0000; 0000; 0000; 0000; 0000; 290717696; 000; 000; 000; 000; 255; 255; 255; 255; 156; 135; -0.004717;  346.101318; -55; 029; -23; -20.057739; 000; 000; 000;  0.000000; 0000; 0000; 0000; 0000; 0210; 0.000000; 0000; 0210;  0.000000;  0.000000;  0.000000; 0; 0;  1.500000;-0.042159; 0.056241;-0.021170;  0.000000;  0.000000;  0.000000; 0; -0.049769;  0.019211;  2.963142;  0.000018;  0.000006;  0.000020;  210; 919.794428; 0049; -2851.000000;  1099.000000;  169775.000000; 0210; 0.000000; 0.000000; 0.000000 ; 16677; 0.000000; 0.000000; 0.000000; 0.000000; 0.000000; 0.000000; 0.000000; 0.000000; 0.000000; 0.000000; 0.000000; 0.000000; 0000; 0000; -0.982902; -0.176528; 0.052355; 0.177280; -0.984109; 0.010048; 0.049750; 0.019158; 0.998578; 0.000000; 0.000000; 0.000000; 0; 0.000000; 0.000000; 0.000000; 0.000000; -1; 88; 72; 1; 37; 24; 0; 73; 20; 0; 119; 24; 0; 158; 2; 0; 9; 56; 0; 51; 54; 0; 85; 54; 0; 119; 54; 0; 149; 54; 0; 17; 84; 0; 51; 90; 0; 85; 90; 0; 119; 90; 0; 149; 90; 0; 7; 115; 1; 38; 109; 0; 85; 119; 1; 118; 118; 1; 144; 119; 0; 0; 0; 0; 0; 0; 0; 0; 0; 0; 0; 0; 0; 0; 0; 0; 0; 0; 0; 0; 0; 0; 0; 0; 0; 0; 0; 0; 0; 0; 0; 0; 0; 0; 0; 0; 0; 0; 0; 0; 0; 0; 0; 0; 0; 0; 0; 0; 0; 0; 0; 0; 0; 0; 0; 0.000000; 0.000000; 0.000000; 0.000000; 0.000000; 0.000000; 0.000000; 0.000000; 0.000000; 0.000000; 0.000000; 0.000000; 0.000000; 0.000000; 0.000000; 0.000000; 0.000000; 0.000000; 0.000000; 0.000000; 0.000000; 0.000000; 0.000000; 0.000000; 0.000000; 0.000000; 4963; 0
0; 2412380180;919.818458; 2064; 1988; 3068; 1733; 1460; 1654; 1954; 0700; 11944; 0000; 1705; 1671; 0773; 2095; 0000; 0000; 0000; 0000; 0000; 49.600677; 1514;  10.377777;  31.333565; -996.693359; -0.403192;  0.245857;  0.064864; -0.137186;  0.624914;  0.000000;  596.000000; -1800.000000;  -1212; -2415; 52956; 0000; 0000; -38059; -34508; 000000;  3.565704; -2.971961;  0.000000; 0000; 0000; 0000; 0000; 0000; 290717696; 000; 000; 000; 000; 255; 255; 255; 255; 156; 135; -0.004717;  346.101318; -55; 029; -23; -20.057739; 000; 000; 000;  0.000000; 0000; 0000; 0000; 0000; 0210; 0.000000; 0000; 0210;  0.000000;  0.000000;  0.000000; 0; 0;  1.500000;-0.042159; 0.056241;-0.021170;  0.000000;  0.000000;  0.000000; 0; -0.049786;  0.019212;  2.963148;  0.000018;  0.000006;  0.000020;  210; 919.811057; 0049; -2850.000000;  1097.000000;  169775.000000; 0210; 0.000000; 0.000000; 0.000000 ; 16677; 0.000000; 0.000000; 0.000000; 0.000000; 0.000000; 0.000000; 0.000000; 0.000000; 0.000000; 0.000000; 0.000000; 0.000000; 0000; 0000; -0.982903; -0.176530; 0.052335; 0.177281; -0.984109; 0.010020; 0.049734; 0.019127; 0.998579; 0.000000; 0.000000; 0.000000; 0; 0.000000; 0.000000; 0.000000; 0.000000; -1; 88; 72; 1; 37; 24; 0; 73; 20; 0; 119; 24; 0; 158; 2; 0; 9; 56; 0; 51; 54; 0; 85; 54; 0; 119; 54; 0; 149; 54; 0; 17; 84; 0; 51; 90; 0; 85; 90; 0; 119; 90; 0; 149; 90; 0; 7; 115; 1; 38; 109; 0; 85; 119; 1; 118; 118; 1; 144; 119; 0; 0; 0; 0; 0; 0; 0; 0; 0; 0; 0; 0; 0; 0; 0; 0; 0; 0; 0; 0; 0; 0; 0; 0; 0; 0; 0; 0; 0; 0; 0; 0; 0; 0; 0; 0; 0; 0; 0; 0; 0; 0; 0; 0; 0; 0; 0; 0; 0; 0; 0; 0; 0; 0; 0; 0.000000; 0.000000; 0.000000; 0.000000; 0.000000; 0.000000; 0.000000; 0.000000; 0.000000; 0.000000; 0.000000; 0.000000; 0.000000; 0.000000; 0.000000; 0.000000; 0.000000; 0.000000; 0.000000; 0.000000; 0.000000; 0.000000; 0.000000; 0.000000; 0.000000; 0.000000; 6075; 0
0; 2412380180;919.822353; 2064; 1988; 3068; 1733; 1460; 1654; 1954; 0697; 11944; 0000; 1704; 1672; 2213; 2335; 0001; 0001; 0000; 0000; 0000; 49.601929; 1515;  9.514664;  32.250328; -997.568848; -0.280957;  0.128528;  0.087886; -0.137189;  0.624931;  0.000000;  546.000000; -1851.000000;  -1212; -2415; 52956; 0000; 0000; -38059; -34508; 000000;  3.565704; -2.971961;  0.000000; 0000; 0000; 0000; 0000; 0000; 290717696; 000; 000; 000; 000; 255; 255; 255; 255; 156; 135; -0.004717;  346.101318; -55; 029; -23; -20.057739; 000; 000; 000;  0.000000; 0000; 0000; 0000; 0000; 0210; 0.000000; 0000; 0210;  0.000000;  0.000000;  0.000000; 0; 0;  1.500000;-0.042159; 0.056241;-0.021170;  0.000000;  0.000000;  0.000000; 0; -0.049786;  0.019212;  2.963148;  0.000018;  0.000006;  0.000020;  210; 919.811057; 0049; -2850.000000;  1095.000000;  169775.000000; 0210; 0.000000; 0.000000; 0.000000 ; 16677; 0.000000; 0.000000; 0.000000; 0.000000; 0.000000; 0.000000; 0.000000; 0.000000; 0.000000; 0.000000; 0.000000; 0.000000; 0000; 0000; -0.982903; -0.176531; 0.052328; 0.177280; -0.984110; 0.009998; 0.049732; 0.019104; 0.998580; 0.000000; 0.000000; 0.000000; 0; 0.000000; 0.000000; 0.000000; 0.000000; -1; 88; 72; 1; 37; 24; 0; 73; 20; 0; 119; 24; 0; 158; 2; 0; 9; 56; 0; 51; 54; 0; 85; 54; 0; 119; 54; 0; 149; 54; 0; 17; 84; 0; 51; 90; 0; 85; 90; 0; 119; 90; 0; 149; 90; 0; 7; 115; 1; 38; 109; 0; 85; 119; 1; 118; 118; 1; 144; 119; 0; 0; 0; 0; 0; 0; 0; 0; 0; 0; 0; 0; 0; 0; 0; 0; 0; 0; 0; 0; 0; 0; 0; 0; 0; 0; 0; 0; 0; 0; 0; 0; 0; 0; 0; 0; 0; 0; 0; 0; 0; 0; 0; 0; 0; 0; 0; 0; 0; 0; 0; 0; 0; 0; 0; 0.000000; 0.000000; 0.000000; 0.000000; 0.000000; 0.000000; 0.000000; 0.000000; 0.000000; 0.000000; 0.000000; 0.000000; 0.000000; 0.000000; 0.000000; 0.000000; 0.000000; 0.000000; 0.000000; 0.000000; 0.000000; 0.000000; 0.000000; 0.000000; 0.000000; 0.000000; 3855; 0
0; 2412380180;919.827332; 2064; 1988; 3068; 1733; 1460; 1654; 1955; 0700; 11944; 0000; 1706; 1671; 0000; 0000; 3758; 0000; 0000; 0000; 0000; 49.603180; 1514;  9.668995;  32.507660; -999.115234; -0.316929;  0.262848;  0.085329; -0.137190;  0.624946;  0.000000;  554.000000; -1863.000000;  -1212; -2415; 52956; 0000; 0000; -38059; -34508; 000000;  3.565704; -2.971961;  0.000000; 0000; 0000; 0000; 0000; 0000; 290717696; 000; 000; 000; 000; 255; 255; 255; 255; 156; 135; -0.004717;  346.101318; -55; 029; -23; -20.057739; 000; 000; 000;  0.000000; 0000; 0000; 0000; 0000; 0210; 0.000000; 0000; 0210;  0.000000;  0.000000;  0.000000; 0; 0;  1.500000;-0.042159; 0.056241;-0.021170;  0.000000;  0.000000;  0.000000; 0; -0.049786;  0.019212;  2.963148;  0.000018;  0.000006;  0.000020;  210; 919.811057; 0049; -2849.000000;  1094.000000;  169775.000000; 0210; 0.000000; 0.000000; 0.000000 ; 16677; 0.000000; 0.000000; 0.000000; 0.000000; 0.000000; 0.000000; 0.000000; 0.000000; 0.000000; 0.000000; 0.000000; 0.000000; 0000; 0000; -0.982904; -0.176531; 0.052309; 0.177279; -0.984110; 0.009974; 0.049717; 0.019077; 0.998581; 0.000000; 0.000000; 0.000000; 0; 0.000000; 0.000000; 0.000000; 0.000000; -1; 88; 72; 1; 37; 24; 0; 73; 20; 0; 119; 24; 0; 158; 2; 0; 9; 56; 0; 51; 54; 0; 85; 54; 0; 119; 54; 0; 149; 54; 0; 17; 84; 0; 51; 90; 0; 85; 90; 0; 119; 90; 0; 149; 90; 0; 7; 115; 1; 38; 109; 0; 85; 119; 1; 118; 118; 1; 144; 119; 0; 0; 0; 0; 0; 0; 0; 0; 0; 0; 0; 0; 0; 0; 0; 0; 0; 0; 0; 0; 0; 0; 0; 0; 0; 0; 0; 0; 0; 0; 0; 0; 0; 0; 0; 0; 0; 0; 0; 0; 0; 0; 0; 0; 0; 0; 0; 0; 0; 0; 0; 0; 0; 0; 0; 0.000000; 0.000000; 0.000000; 0.000000; 0.000000; 0.000000; 0.000000; 0.000000; 0.000000; 0.000000; 0.000000; 0.000000; 0.000000; 0.000000; 0.000000; 0.000000; 0.000000; 0.000000; 0.000000; 0.000000; 0.000000; 0.000000; 0.000000; 0.000000; 0.000000; 0.000000; 4926; 0
0; 2412380180;919.832339; 2068; 1988; 3072; 1733; 1460; 1654; 1953; 0700; 11944; 0000; 1705; 1671; 0000; 0000; 3758; 0000; 0000; 0000; 0000; 49.604424; 1513;  9.015240;  32.013176; -1001.325928; -0.268772;  0.321206;  0.080384; -0.137194;  0.624964;  0.000000;  515.000000; -1831.000000;  -1212; -2415; 52956; 0000; 0000; -38059; -34508; 000000;  3.565704; -2.971961;  0.000000; 0000; 0000; 0000; 0000; 0000; 290717696; 000; 000; 000; 000; 255; 255; 255; 255; 156; 135; -0.004717;  346.101318; -55; 029; -23; -20.057739; 000; 000; 000;  0.000000; 0000; 0000; 0000; 0000; 0210; 0.000000; 0000; 0210;  0.000000;  0.000000;  0.000000; 0; 0;  1.500000;-0.042159; 0.056241;-0.021170;  0.000000;  0.000000;  0.000000; 0; -0.049737;  0.019101;  2.963149; -0.000082;  0.000044;  0.000024;  210; 919.827720; 0049; -2848.000000;  1093.000000;  169775.000000; 0210; 0.000000; 0.000000; 0.000000 ; 16677; 0.000000; 0.000000; 0.000000; 0.000000; 0.000000; 0.000000; 0.000000; 0.000000; 0.000000; 0.000000; 0.000000; 0.000000; 0000; 0000; -0.982905; -0.176532; 0.052287; 0.177278; -0.984111; 0.009956; 0.049698; 0.019055; 0.998582; 0.000000; 0.000000; 0.000000; 0; 0.000000; 0.000000; 0.000000; 0.000000; -1; 88; 72; 1; 37; 24; 0; 73; 20; 0; 119; 24; 0; 158; 2; 0; 9; 56; 0; 51; 54; 0; 85; 54; 0; 119; 54; 0; 149; 54; 0; 17; 84; 0; 51; 90; 0; 85; 90; 0; 119; 90; 0; 149; 90; 0; 7; 115; 1; 38; 109; 0; 85; 119; 1; 118; 118; 1; 144; 119; 0; 0; 0; 0; 0; 0; 0; 0; 0; 0; 0; 0; 0; 0; 0; 0; 0; 0; 0; 0; 0; 0; 0; 0; 0; 0; 0; 0; 0; 0; 0; 0; 0; 0; 0; 0; 0; 0; 0; 0; 0; 0; 0; 0; 0; 0; 0; 0; 0; 0; 0; 0; 0; 0; 0; 0.000000; 0.000000; 0.000000; 0.000000; 0.000000; 0.000000; 0.000000; 0.000000; 0.000000; 0.000000; 0.000000; 0.000000; 0.000000; 0.000000; 0.000000; 0.000000; 0.000000; 0.000000; 0.000000; 0.000000; 0.000000; 0.000000; 0.000000; 0.000000; 0.000000; 0.000000; 4967; 0
0; 2412380180;919.837335; 2068; 1988; 3072; 1733; 1460; 1654; 1952; 0699; 11944; 0000; 1705; 1671; 0000; 0000; 3758; 0000; 0000; 0000; 0000; 49.605667; 1514;  11.654509;  32.092644; -1001.470215; -0.287942;  0.250241;  0.082335; -0.137198;  0.624968;  0.000000;  666.000000; -1835.000000;  -1212; -2415; 52956; 0000; 0000; -38059; -34508; 000000;  3.565704; -2.971961;  0.000000; 0000; 0000; 0000; 0000; 0000; 290717696; 000; 000; 000; 000; 255; 255; 255; 255; 156; 135; -0.004717;  346.101318; -55; 029; -23; -20.057739; 000; 000; 000;  0.000000; 0000; 0000; 0000; 0000; 0210; 0.000000; 0000; 0210;  0.000000;  0.000000;  0.000000; 0; 0;  1.500000;-0.042159; 0.056241;-0.021170;  0.000000;  0.000000;  0.000000; 0; -0.049737;  0.019101;  2.963149; -0.000082;  0.000044;  0.000024;  210; 919.827720; 0049; -2847.000000;  1091.000000;  169776.000000; 0210; 0.000000; 0.000000; 0.000000 ; 16677; 0.000000; 0.000000; 0.000000; 0.000000; 0.000000; 0.000000; 0.000000; 0.000000; 0.000000; 0.000000; 0.000000; 0.000000; 0000; 0000; -0.982907; -0.176533; 0.052263; 0.177278; -0.984111; 0.009937; 0.049679; 0.019032; 0.998584; 0.000000; 0.000000; 0.000000; 0; 0.000000; 0.000000; 0.000000; 0.000000; -1; 88; 72; 1; 37; 24; 0; 73; 20; 0; 119; 24; 0; 158; 2; 0; 9; 56; 0; 51; 54; 0; 85; 54; 0; 119; 54; 0; 149; 54; 0; 17; 84; 0; 51; 90; 0; 85; 90; 0; 119; 90; 0; 149; 90; 0; 7; 115; 1; 38; 109; 0; 85; 119; 1; 118; 118; 1; 144; 119; 0; 0; 0; 0; 0; 0; 0; 0; 0; 0; 0; 0; 0; 0; 0; 0; 0; 0; 0; 0; 0; 0; 0; 0; 0; 0; 0; 0; 0; 0; 0; 0; 0; 0; 0; 0; 0; 0; 0; 0; 0; 0; 0; 0; 0; 0; 0; 0; 0; 0; 0; 0; 0; 0; 0; 0.000000; 0.000000; 0.000000; 0.000000; 0.000000; 0.000000; 0.000000; 0.000000; 0.000000; 0.000000; 0.000000; 0.000000; 0.000000; 0.000000; 0.000000; 0.000000; 0.000000; 0.000000; 0.000000; 0.000000; 0.000000; 0.000000; 0.000000; 0.000000; 0.000000; 0.000000; 4957; 0
0; 2412380180;919.842324; 2068; 1988; 3072; 1733; 1460; 1654; 1954; 0700; 11944; 0000; 1705; 1672; 0000; 0000; 3758; 0000; 0000; 0000; 0000; 49.605339; 1514;  12.750385;  32.241188; -1003.168701; -0.328620;  0.372280;  0.078782; -0.137200;  0.624966;  0.000000;  727.000000; -1840.000000;  -1212; -2415; 52956; 0000; 0000; -38059; -34508; 000000;  3.565704; -2.971961;  0.000000; 0000; 0000; 0000; 0000; 0000; 290717696; 000; 000; 000; 000; 255; 255; 255; 255; 156; 135; -0.004717;  346.101318; -55; 029; -23; -20.057739; 000; 000; 000;  0.000000; 0000; 0000; 0000; 0000; 0210; 0.000000; 0000; 0210;  0.000000;  0.000000;  0.000000; 0; 0;  1.500000;-0.042159; 0.056241;-0.021170;  0.000000;  0.000000;  0.000000; 0; -0.049737;  0.019101;  2.963149; -0.000082;  0.000044;  0.000024;  210; 919.827720; 0049; -2845.000000;  1090.000000;  169776.000000; 0210; 0.000000; 0.000000; 0.000000 ; 16677; 0.000000; 0.000000; 0.000000; 0.000000; 0.000000; 0.000000; 0.000000; 0.000000; 0.000000; 0.000000; 0.000000; 0.000000; 0000; 0000; -0.982908; -0.176534; 0.052225; 0.177277; -0.984111; 0.009916; 0.049645; 0.019005; 0.998586; 0.000000; 0.000000; 0.000000; 0; 0.000000; 0.000000; 0.000000; 0.000000; -1; 88; 72; 1; 37; 24; 0; 73; 20; 0; 119; 24; 0; 158; 2; 0; 9; 56; 0; 51; 54; 0; 85; 54; 0; 119; 54; 0; 149; 54; 0; 17; 84; 0; 51; 90; 0; 85; 90; 0; 119; 90; 0; 149; 90; 0; 7; 115; 1; 38; 109; 0; 85; 119; 1; 118; 118; 1; 144; 119; 0; 0; 0; 0; 0; 0; 0; 0; 0; 0; 0; 0; 0; 0; 0; 0; 0; 0; 0; 0; 0; 0; 0; 0; 0; 0; 0; 0; 0; 0; 0; 0; 0; 0; 0; 0; 0; 0; 0; 0; 0; 0; 0; 0; 0; 0; 0; 0; 0; 0; 0; 0; 0; 0; 0; 0.000000; 0.000000; 0.000000; 0.000000; 0.000000; 0.000000; 0.000000; 0.000000; 0.000000; 0.000000; 0.000000; 0.000000; 0.000000; 0.000000; 0.000000; 0.000000; 0.000000; 0.000000; 0.000000; 0.000000; 0.000000; 0.000000; 0.000000; 0.000000; 0.000000; 0.000000; 4947; 0
0; 2412380180;919.847334; 2068; 1988; 3072; 1733; 1461; 1654; 1954; 0702; 11944; 0000; 1705; 1671; 0000; 0000; 3758; 0000; 0000; 0000; 0000; 49.605011; 1514;  13.777407;  32.144531; -1003.386963; -0.305669;  0.127892;  0.080399; -0.137204;  0.624958;  0.000000;  786.000000; -1834.000000;  -1212; -2415; 52956; 0000; 0000; -38059; -34508; 000000;  3.565704; -2.971961;  0.000000; 0000; 0000; 0000; 0000; 0000; 290717696; 000; 000; 000; 000; 255; 255; 255; 255; 156; 135; -0.004717;  346.101318; -55; 029; -23; -20.057739; 000; 000; 000;  0.000000; 0000; 0000; 0000; 0000; 0210; 0.000000; 0000; 0210;  0.000000;  0.000000;  0.000000; 0; 0;  1.500000;-0.042159; 0.056241;-0.021170;  0.000000;  0.000000;  0.000000; 0; -0.049737;  0.019101;  2.963149; -0.000084;  0.000080;  0.000024;  210; 919.827720; 0049; -2844.000000;  1088.000000;  169776.000000; 0210; 0.000000; 0.000000; 0.000000 ; 16677; 0.000000; 0.000000; 0.000000; 0.000000; 0.000000; 0.000000; 0.000000; 0.000000; 0.000000; 0.000000; 0.000000; 0.000000; 0000; 0000; -0.982909; -0.176536; 0.052206; 0.177277; -0.984111; 0.009894; 0.049630; 0.018980; 0.998587; 0.000000; 0.000000; 0.000000; 0; 0.000000; 0.000000; 0.000000; 0.000000; -1; 88; 72; 1; 37; 24; 0; 73; 20; 0; 119; 24; 0; 158; 2; 0; 9; 56; 0; 51; 54; 0; 85; 54; 0; 119; 54; 0; 149; 54; 0; 17; 84; 0; 51; 90; 0; 85; 90; 0; 119; 90; 0; 149; 90; 0; 7; 115; 1; 38; 109; 0; 85; 119; 1; 118; 118; 1; 144; 119; 0; 0; 0; 0; 0; 0; 0; 0; 0; 0; 0; 0; 0; 0; 0; 0; 0; 0; 0; 0; 0; 0; 0; 0; 0; 0; 0; 0; 0; 0; 0; 0; 0; 0; 0; 0; 0; 0; 0; 0; 0; 0; 0; 0; 0; 0; 0; 0; 0; 0; 0; 0; 0; 0; 0; 0.000000; 0.000000; 0.000000; 0.000000; 0.000000; 0.000000; 0.000000; 0.000000; 0.000000; 0.000000; 0.000000; 0.000000; 0.000000; 0.000000; 0.000000; 0.000000; 0.000000; 0.000000; 0.000000; 0.000000; 0.000000; 0.000000; 0.000000; 0.000000; 0.000000; 0.000000; 4973; 0
0; 2412380180;919.852309; 2068; 1988; 3072; 1733; 1461; 1654; 1955; 0702; 11944; 0000; 1706; 1671; 0000; 0000; 3758; 0000; 0000; 0000; 0000; 49.604683; 1514;  13.172565;  32.228348; -1002.859619; -0.292594;  0.014632;  0.083057; -0.137207;  0.624954;  0.000000;  752.000000; -1840.000000;  -1212; -2415; 52956; 0000; 0000; -38059; -34508; 000000;  3.565704; -2.971961;  0.000000; 0000; 0000; 0000; 0000; 0000; 290717696; 000; 000; 000; 000; 255; 255; 255; 255; 156; 135; -0.004717;  346.101318; -55; 029; -23; -20.057739; 000; 000; 000;  0.000000; 0000; 0000; 0000; 0000; 0210; 0.000000; 0000; 0210;  0.000000;  0.000000;  0.000000; 0; 0;  1.500000;-0.042159; 0.056241;-0.021170;  0.000000;  0.000000;  0.000000; 0; -0.049665;  0.019029;  2.963151; -0.000084;  0.000080;  0.000024;  210; 919.844315; 0049; -2844.000000;  1087.000000;  169776.000000; 0210; 0.000000; 0.000000; 0.000000 ; 16678; 0.000000; 0.000000; 0.000000; 0.000000; 0.000000; 0.000000; 0.000000; 0.000000; 0.000000; 0.000000; 0.000000; 0.000000; 0000; 0000; -0.982909; -0.176537; 0.052198; 0.177277; -0.984112; 0.009871; 0.049626; 0.018956; 0.998588; 0.000000; 0.000000; 0.000000; 0; 0.000000; 0.000000; 0.000000; 0.000000; -1; 88; 72; 1; 37; 24; 0; 73; 20; 0; 119; 24; 0; 158; 2; 0; 9; 56; 0; 51; 54; 0; 85; 54; 0; 119; 54; 0; 149; 54; 0; 17; 84; 0; 51; 90; 0; 85; 90; 0; 119; 90; 0; 149; 90; 0; 7; 115; 1; 38; 109; 0; 85; 119; 1; 118; 118; 1; 144; 119; 0; 0; 0; 0; 0; 0; 0; 0; 0; 0; 0; 0; 0; 0; 0; 0; 0; 0; 0; 0; 0; 0; 0; 0; 0; 0; 0; 0; 0; 0; 0; 0; 0; 0; 0; 0; 0; 0; 0; 0; 0; 0; 0; 0; 0; 0; 0; 0; 0; 0; 0; 0; 0; 0; 0; 0.000000; 0.000000; 0.000000; 0.000000; 0.000000; 0.000000; 0.000000; 0.000000; 0.000000; 0.000000; 0.000000; 0.000000; 0.000000; 0.000000; 0.000000; 0.000000; 0.000000; 0.000000; 0.000000; 0.000000; 0.000000; 0.000000; 0.000000; 0.000000; 0.000000; 0.000000; 4936; 0
0; 2412380180;919.892638; 2068; 1988; 3064; 1734; 1461; 1654; 1957; 0700; 11944; 0000; 1705; 1671; 0000; 0000; 3758; 0000; 0954; 3698; 2558; 49.608322; 1513;  12.535583;  32.151260; -994.719238;  0.174306; -0.009699;  0.081120; -0.137306;  0.624949;  0.000000;  721.000000; -1851.000000;  -1212; -2415; 52956; 0000; 0000; -38059; -34508; 000000;  3.565704; -2.971961;  0.000000; 0000; 0000; 0000; 0000; 0000; 290717696; 000; 000; 000; 000; 255; 255; 255; 255; 156; 135; -0.004717;  346.101318; -55; 029; -23; -20.057739; 000; 000; 000;  0.000000; 0000; 0000; 0000; 0000; 0209; 0.000000; 0000; 0209;  0.000000;  0.000000;  0.000000; 0; 0;  1.500000;-0.042159; 0.056241;-0.021170;  0.000000;  0.000000;  0.000000; 0; -0.049640;  0.018960;  2.963152;  0.000000;  0.000000;  0.000000;  209; 919.877535; 0049; -2844.000000;  1084.000000;  169776.000000; 0209; 0.000000; 0.000000; 0.000000 ; 16678; 0.000000; 0.000000; 0.000000; 0.000000; 0.000000; 0.000000; 0.000000; 0.000000; 0.000000; 0.000000; 0.000000; 0.000000; 0000; 0000; -0.982909; -0.176539; 0.052189; 0.177277; -0.984112; 0.009824; 0.049625; 0.018908; 0.998589; 0.000000; 0.000000; 0.000000; 0; 0.000000; 0.000000; 0.000000; 0.000000; -1; 88; 72; 1; 37; 24; 0; 73; 20; 0; 119; 24; 0; 158; 2; 0; 9; 56; 0; 51; 54; 0; 85; 54; 0; 119; 54; 0; 149; 54; 0; 17; 84; 0; 51; 90; 0; 85; 90; 0; 119; 90; 0; 149; 90; 0; 7; 115; 1; 38; 109; 0; 85; 119; 1; 118; 118; 1; 144; 119; 0; 0; 0; 0; 0; 0; 0; 0; 0; 0; 0; 0; 0; 0; 0; 0; 0; 0; 0; 0; 0; 0; 0; 0; 0; 0; 0; 0; 0; 0; 0; 0; 0; 0; 0; 0; 0; 0; 0; 0; 0; 0; 0; 0; 0; 0; 0; 0; 0; 0; 0; 0; 0; 0; 0; 0.000000; 0.000000; 0.000000; 0.000000; 0.000000; 0.000000; 0.000000; 0.000000; 0.000000; 0.000000; 0.000000; 0.000000; 0.000000; 0.000000; 0.000000; 0.000000; 0.000000; 0.000000; 0.000000; 0.000000; 0.000000; 0.000000; 0.000000; 0.000000; 0.000000; 0.000000; 297; 0
0; 2412380180;919.897281; 2068; 1988; 3064; 1734; 1461; 1654; 1956; 0702; 11944; 0000; 1705; 1671; 0772; 2095; 0000; 0001; 1090; 3683; 1877; 49.607986; 1513;  12.615746;  32.003807; -995.288086;  0.098517; -0.138960;  0.081245; -0.137312;  0.624950;  0.000000;  725.000000; -1841.000000;  -1212; -2415; 52956; 0000; 0000; -38059; -34508; 000000;  3.565704; -2.971961;  0.000000; 0000; 0000; 0000; 0000; 0000; 290717696; 000; 000; 000; 000; 255; 255; 255; 255; 156; 135; -0.004717;  346.101318; -55; 029; -23; -20.057739; 000; 000; 000;  0.000000; 0000; 0000; 0000; 0000; 0209; 0.000000; 0000; 0209;  0.000000;  0.000000;  0.000000; 0; 0;  1.500000;-0.042159; 0.056241;-0.021170;  0.000000;  0.000000;  0.000000; 0; -0.049646;  0.018932;  2.963152; -0.000055; -0.000000;  0.000024;  209; 919.894183; 0049; -2845.000000;  1085.000000;  169776.000000; 0209; 0.000000; 0.000000; 0.000000 ; 16678; 0.000000; 0.000000; 0.000000; 0.000000; 0.000000; 0.000000; 0.000000; 0.000000; 0.000000; 0.000000; 0.000000; 0.000000; 0000; 0000; -0.982909; -0.176538; 0.052203; 0.177277; -0.984112; 0.009833; 0.049638; 0.018919; 0.998588; 0.000000; 0.000000; 0.000000; 0; 0.000000; 0.000000; 0.000000; 0.000000; -1; 88; 72; 1; 37; 24; 0; 73; 20; 0; 119; 24; 0; 158; 2; 0; 9; 56; 0; 51; 54; 0; 85; 54; 0; 119; 54; 0; 149; 54; 0; 17; 84; 0; 51; 90; 0; 85; 90; 0; 119; 90; 0; 149; 90; 0; 7; 115; 1; 38; 109; 0; 85; 119; 1; 118; 118; 1; 144; 119; 0; 0; 0; 0; 0; 0; 0; 0; 0; 0; 0; 0; 0; 0; 0; 0; 0; 0; 0; 0; 0; 0; 0; 0; 0; 0; 0; 0; 0; 0; 0; 0; 0; 0; 0; 0; 0; 0; 0; 0; 0; 0; 0; 0; 0; 0; 0; 0; 0; 0; 0; 0; 0; 0; 0; 0.000000; 0.000000; 0.000000; 0.000000; 0.000000; 0.000000; 0.000000; 0.000000; 0.000000; 0.000000; 0.000000; 0.000000; 0.000000; 0.000000; 0.000000; 0.000000; 0.000000; 0.000000; 0.000000; 0.000000; 0.000000; 0.000000; 0.000000; 0.000000; 0.000000; 0.000000; 4629; 0
0; 2412380180;919.902260; 2068; 1988; 3064; 1733; 1460; 1655; 1956; 0700; 11944; 0000; 1706; 1671; 2215; 2333; 0001; 0001; 1237; 3686; 1549; 49.609215; 1515;  12.602623;  31.634521; -994.857422; -0.030866;  0.042899;  0.005301; -0.137319;  0.624951;  0.000000;  725.000000; -1821.000000;  -1212; -2415; 52956; 0000; 0000; -38059; -34508; 000000;  3.565704; -2.971961;  0.000000; 0000; 0000; 0000; 0000; 0000; 290717696; 000; 000; 000; 000; 255; 255; 255; 255; 156; 135; -0.004717;  346.101318; -55; 029; -23; -20.057739; 000; 000; 000;  0.000000; 0000; 0000; 0000; 0000; 0209; 0.000000; 0000; 0209;  0.000000;  0.000000;  0.000000; 0; 0;  1.500000;-0.042159; 0.056241;-0.021170;  0.000000;  0.000000;  0.000000; 0; -0.049646;  0.018932;  2.963152; -0.000055; -0.000000;  0.000024;  209; 919.894183; 0049; -2845.000000;  1085.000000;  169775.000000; 0209; 0.000000; 0.000000; 0.000000 ; 16679; 0.000000; 0.000000; 0.000000; 0.000000; 0.000000; 0.000000; 0.000000; 0.000000; 0.000000; 0.000000; 0.000000; 0.000000; 0000; 0000; -0.982908; -0.176545; 0.052200; 0.177283; -0.984111; 0.009834; 0.049635; 0.018921; 0.998588; 0.000000; 0.000000; 0.000000; 0; 0.000000; 0.000000; 0.000000; 0.000000; -1; 88; 72; 1; 37; 24; 0; 73; 20; 0; 119; 24; 0; 158; 2; 0; 9; 56; 0; 51; 54; 0; 85; 54; 0; 119; 54; 0; 149; 54; 0; 17; 84; 0; 51; 90; 0; 85; 90; 0; 119; 90; 0; 149; 90; 0; 7; 115; 1; 38; 109; 0; 85; 119; 1; 118; 118; 1; 144; 119; 0; 0; 0; 0; 0; 0; 0; 0; 0; 0; 0; 0; 0; 0; 0; 0; 0; 0; 0; 0; 0; 0; 0; 0; 0; 0; 0; 0; 0; 0; 0; 0; 0; 0; 0; 0; 0; 0; 0; 0; 0; 0; 0; 0; 0; 0; 0; 0; 0; 0; 0; 0; 0; 0; 0; 0.000000; 0.000000; 0.000000; 0.000000; 0.000000; 0.000000; 0.000000; 0.000000; 0.000000; 0.000000; 0.000000; 0.000000; 0.000000; 0.000000; 0.000000; 0.000000; 0.000000; 0.000000; 0.000000; 0.000000; 0.000000; 0.000000; 0.000000; 0.000000; 0.000000; 0.000000; 4940; 0
0; 2412380180;919.907436; 2068; 1988; 3060; 1733; 1461; 1654; 1953; 0701; 11944; 0000; 1705; 1671; 0000; 0000; 3758; 0000; 1361; 3668; 1412; 49.610443; 1513;  12.526196;  31.924255; -994.048828; -0.178325; -0.067182;  0.031530; -0.137325;  0.624953;  0.000000;  721.000000; -1839.000000;  -1212; -2415; 52956; 0000; 0000; -38059; -34508; 000000;  3.565704; -2.971961;  0.000000; 0000; 0000; 0000; 0000; 0000; 290717696; 000; 000; 000; 000; 255; 255; 255; 255; 156; 135; -0.004717;  346.101318; -55; 029; -23; -20.057739; 000; 000; 000;  0.000000; 0000; 0000; 0000; 0000; 0209; 0.000000; 0000; 0209;  0.000000;  0.000000;  0.000000; 0; 0;  1.500000;-0.042159; 0.056241;-0.021170;  0.000000;  0.000000;  0.000000; 0; -0.049646;  0.018932;  2.963152; -0.000055; -0.000000;  0.000024;  209; 919.894183; 0049; -2845.000000;  1084.000000;  169775.000000; 0209; 0.000000; 0.000000; 0.000000 ; 16679; 0.000000; 0.000000; 0.000000; 0.000000; 0.000000; 0.000000; 0.000000; 0.000000; 0.000000; 0.000000; 0.000000; 0.000000; 0000; 0000; -0.982907; -0.176549; 0.052205; 0.177287; -0.984110; 0.009821; 0.049641; 0.018908; 0.998588; 0.000000; 0.000000; 0.000000; 0; 0.000000; 0.000000; 0.000000; 0.000000; -1; 88; 72; 1; 37; 24; 0; 73; 20; 0; 119; 24; 0; 158; 2; 0; 9; 56; 0; 51; 54; 0; 85; 54; 0; 119; 54; 0; 149; 54; 0; 17; 84; 0; 51; 90; 0; 85; 90; 0; 119; 90; 0; 149; 90; 0; 7; 115; 1; 38; 109; 0; 85; 119; 1; 118; 118; 1; 144; 119; 0; 0; 0; 0; 0; 0; 0; 0; 0; 0; 0; 0; 0; 0; 0; 0; 0; 0; 0; 0; 0; 0; 0; 0; 0; 0; 0; 0; 0; 0; 0; 0; 0; 0; 0; 0; 0; 0; 0; 0; 0; 0; 0; 0; 0; 0; 0; 0; 0; 0; 0; 0; 0; 0; 0; 0.000000; 0.000000; 0.000000; 0.000000; 0.000000; 0.000000; 0.000000; 0.000000; 0.000000; 0.000000; 0.000000; 0.000000; 0.000000; 0.000000; 0.000000; 0.000000; 0.000000; 0.000000; 0.000000; 0.000000; 0.000000; 0.000000; 0.000000; 0.000000; 0.000000; 0.000000; 5138; 0
0; 2412380180;919.912271; 2068; 1988; 3060; 1734; 1460; 1654; 1957; 0700; 11944; 0000; 1705; 1672; 0000; 0000; 3758; 0000; 1498; 3618; 1304; 49.610100; 1514;  12.480461;  32.180031; -992.984375; -0.170523;  0.223956; -0.001815; -0.137330;  0.624955;  0.000000;  719.000000; -1856.000000;  -1212; -2415; 52956; 0000; 0000; -38059; -34508; 000000;  3.565704; -2.971961;  0.000000; 0000; 0000; 0000; 0000; 0000; 290717696; 000; 000; 000; 000; 255; 255; 255; 255; 156; 135; -0.004717;  346.101318; -55; 029; -23; -20.057739; 000; 000; 000;  0.000000; 0000; 0000; 0000; 0000; 0209; 0.000000; 0000; 0209;  0.000000;  0.000000;  0.000000; 0; 0;  1.500000;-0.042159; 0.056241;-0.021170;  0.000000;  0.000000;  0.000000; 0; -0.049646;  0.018932;  2.963152;  0.000023; -0.000010;  0.000016;  209; 919.894183; 0049; -2844.000000;  1084.000000;  169775.000000; 0209; 0.000000; 0.000000; 0.000000 ; 16679; 0.000000; 0.000000; 0.000000; 0.000000; 0.000000; 0.000000; 0.000000; 0.000000; 0.000000; 0.000000; 0.000000; 0.000000; 0000; 0000; -0.982906; -0.176557; 0.052184; 0.177294; -0.984109; 0.009812; 0.049623; 0.018896; 0.998589; 0.000000; 0.000000; 0.000000; 0; 0.000000; 0.000000; 0.000000; 0.000000; -1; 88; 72; 1; 37; 24; 0; 73; 20; 0; 119; 24; 0; 158; 2; 0; 9; 56; 0; 51; 54; 0; 85; 54; 0; 119; 54; 0; 149; 54; 0; 17; 84; 0; 51; 90; 0; 85; 90; 0; 119; 90; 0; 149; 90; 0; 7; 115; 1; 38; 109; 0; 85; 119; 1; 118; 118; 1; 144; 119; 0; 0; 0; 0; 0; 0; 0; 0; 0; 0; 0; 0; 0; 0; 0; 0; 0; 0; 0; 0; 0; 0; 0; 0; 0; 0; 0; 0; 0; 0; 0; 0; 0; 0; 0; 0; 0; 0; 0; 0; 0; 0; 0; 0; 0; 0; 0; 0; 0; 0; 0; 0; 0; 0; 0; 0.000000; 0.000000; 0.000000; 0.000000; 0.000000; 0.000000; 0.000000; 0.000000; 0.000000; 0.000000; 0.000000; 0.000000; 0.000000; 0.000000; 0.000000; 0.000000; 0.000000; 0.000000; 0.000000; 0.000000; 0.000000; 0.000000; 0.000000; 0.000000; 0.000000; 0.000000; 4796; 0
0; 2412380180;919.917251; 2072; 1988; 3060; 1734; 1461; 1654; 1955; 0699; 11944; 0000; 1705; 1672; 0000; 0000; 3758; 0000; 1634; 3223; 1233; 49.609756; 1514;  13.873421;  31.993469; -991.050781; -0.118273;  0.095640;  0.041481; -0.137336;  0.624950;  0.000000;  801.000000; -1849.000000;  -1212; -2415; 52956; 0000; 0000; -38059; -34508; 000000;  3.565704; -2.971961;  0.000000; 0000; 0000; 0000; 0000; 0000; 290717696; 000; 000; 000; 000; 255; 255; 255; 255; 156; 135; -0.004717;  346.101318; -55; 029; -23; -20.057739; 000; 000; 000;  0.000000; 0000; 0000; 0000; 0000; 0209; 0.000000; 0000; 0209;  0.000000;  0.000000;  0.000000; 0; 0;  1.500000;-0.042159; 0.056241;-0.021170;  0.000000;  0.000000;  0.000000; 0; -0.049662;  0.018933;  2.963141;  0.000023; -0.000010;  0.000016;  209; 919.910790; 0049; -2843.000000;  1083.000000;  169774.000000; 0209; 0.000000; 0.000000; 0.000000 ; 16679; 0.000000; 0.000000; 0.000000; 0.000000; 0.000000; 0.000000; 0.000000; 0.000000; 0.000000; 0.000000; 0.000000; 0.000000; 0000; 0000; -0.982906; -0.176561; 0.052172; 0.177297; -0.984109; 0.009807; 0.049612; 0.018889; 0.998590; 0.000000; 0.000000; 0.000000; 0; 0.000000; 0.000000; 0.000000; 0.000000; -1; 88; 72; 1; 37; 24; 0; 73; 20; 0; 119; 24; 0; 158; 2; 0; 9; 56; 0; 51; 54; 0; 85; 54; 0; 119; 54; 0; 149; 54; 0; 17; 84; 0; 51; 90; 0; 85; 90; 0; 119; 90; 0; 149; 90; 0; 7; 115; 1; 38; 109; 0; 85; 119; 1; 118; 118; 1; 144; 119; 0; 0; 0; 0; 0; 0; 0; 0; 0; 0; 0; 0; 0; 0; 0; 0; 0; 0; 0; 0; 0; 0; 0; 0; 0; 0; 0; 0; 0; 0; 0; 0; 0; 0; 0; 0; 0; 0; 0; 0; 0; 0; 0; 0; 0; 0; 0; 0; 0; 0; 0; 0; 0; 0; 0; 0.000000; 0.000000; 0.000000; 0.000000; 0.000000; 0.000000; 0.000000; 0.000000; 0.000000; 0.000000; 0.000000; 0.000000; 0.000000; 0.000000; 0.000000; 0.000000; 0.000000; 0.000000; 0.000000; 0.000000; 0.000000; 0.000000; 0.000000; 0.000000; 0.000000; 0.000000; 4943; 0
0; 2412380180;919.922257; 2068; 1988; 3060; 1733; 1461; 1654; 1956; 0701; 11944; 0000; 1705; 1671; 0000; 0000; 3758; 0000; 1769; 2576; 1182; 49.609413; 1515;  13.344334;  31.855438; -990.494141; -0.044789; -0.031363;  0.120700; -0.137343;  0.624948;  0.000000;  771.000000; -1842.000000;  -1212; -2415; 52956; 0000; 0000; -38059; -34508; 000000;  3.565704; -2.971961;  0.000000; 0000; 0000; 0000; 0000; 0000; 290717696; 000; 000; 000; 000; 255; 255; 255; 255; 156; 135; -0.004717;  346.101318; -55; 029; -23; -20.057739; 000; 000; 000;  0.000000; 0000; 0000; 0000; 0000; 0209; 0.000000; 0000; 0209;  0.000000;  0.000000;  0.000000; 0; 0;  1.500000;-0.042159; 0.056241;-0.021170;  0.000000;  0.000000;  0.000000; 0; -0.049662;  0.018933;  2.963141;  0.000023; -0.000010;  0.000016;  209; 919.910790; 0049; -2843.000000;  1083.000000;  169775.000000; 0209; 0.000000; 0.000000; 0.000000 ; 16679; 0.000000; 0.000000; 0.000000; 0.000000; 0.000000; 0.000000; 0.000000; 0.000000; 0.000000; 0.000000; 0.000000; 0.000000; 0000; 0000; -0.982907; -0.176557; 0.052174; 0.177294; -0.984109; 0.009806; 0.049614; 0.018889; 0.998590; 0.000000; 0.000000; 0.000000; 0; 0.000000; 0.000000; 0.000000; 0.000000; -1; 88; 72; 1; 37; 24; 0; 73; 20; 0; 119; 24; 0; 158; 2; 0; 9; 56; 0; 51; 54; 0; 85; 54; 0; 119; 54; 0; 149; 54; 0; 17; 84; 0; 51; 90; 0; 85; 90; 0; 119; 90; 0; 149; 90; 0; 7; 115; 1; 38; 109; 0; 85; 119; 1; 118; 118; 1; 144; 119; 0; 0; 0; 0; 0; 0; 0; 0; 0; 0; 0; 0; 0; 0; 0; 0; 0; 0; 0; 0; 0; 0; 0; 0; 0; 0; 0; 0; 0; 0; 0; 0; 0; 0; 0; 0; 0; 0; 0; 0; 0; 0; 0; 0; 0; 0; 0; 0; 0; 0; 0; 0; 0; 0; 0; 0.000000; 0.000000; 0.000000; 0.000000; 0.000000; 0.000000; 0.000000; 0.000000; 0.000000; 0.000000; 0.000000; 0.000000; 0.000000; 0.000000; 0.000000; 0.000000; 0.000000; 0.000000; 0.000000; 0.000000; 0.000000; 0.000000; 0.000000; 0.000000; 0.000000; 0.000000; 4969; 0
0; 2412380180;919.927787; 2068; 1988; 3060; 1734; 1461; 1654; 1958; 0700; 11944; 0000; 1705; 1671; 0000; 0000; 3758; 0000; 1906; 1425; 1131; 49.609077; 1513;  14.024616;  31.903824; -991.290039;  0.055538; -0.017221;  0.072661; -0.137350;  0.624943;  0.000000;  810.000000; -1843.000000;  -1212; -2415; 52956; 0000; 0000; -38059; -34508; 000000;  3.565704; -2.971961;  0.000000; 0000; 0000; 0000; 0000; 0000; 290717696; 000; 000; 000; 000; 255; 255; 255; 255; 156; 135; -0.004717;  346.101318; -55; 029; -23; -20.057739; 000; 000; 000;  0.000000; 0000; 0000; 0000; 0000; 0209; 0.000000; 0000; 0209;  0.000000;  0.000000;  0.000000; 0; 0;  1.500000;-0.042159; 0.056241;-0.021170;  0.000000;  0.000000;  0.000000; 0; -0.049662;  0.018933;  2.963141; -0.000037;  0.000016;  0.000014;  209; 919.910790; 0049; -2843.000000;  1084.000000;  169775.000000; 0209; 0.000000; 0.000000; 0.000000 ; 16679; 0.000000; 0.000000; 0.000000; 0.000000; 0.000000; 0.000000; 0.000000; 0.000000; 0.000000; 0.000000; 0.000000; 0.000000; 0000; 0000; -0.982907; -0.176557; 0.052174; 0.177294; -0.984109; 0.009815; 0.049612; 0.018897; 0.998590; 0.000000; 0.000000; 0.000000; 0; 0.000000; 0.000000; 0.000000; 0.000000; -1; 88; 72; 1; 37; 24; 0; 73; 20; 0; 119; 24; 0; 158; 2; 0; 9; 56; 0; 51; 54; 0; 85; 54; 0; 119; 54; 0; 149; 54; 0; 17; 84; 0; 51; 90; 0; 85; 90; 0; 119; 90; 0; 149; 90; 0; 7; 115; 1; 38; 109; 0; 85; 119; 1; 118; 118; 1; 144; 119; 0; 0; 0; 0; 0; 0; 0; 0; 0; 0; 0; 0; 0; 0; 0; 0; 0; 0; 0; 0; 0; 0; 0; 0; 0; 0; 0; 0; 0; 0; 0; 0; 0; 0; 0; 0; 0; 0; 0; 0; 0; 0; 0; 0; 0; 0; 0; 0; 0; 0; 0; 0; 0; 0; 0; 0.000000; 0.000000; 0.000000; 0.000000; 0.000000; 0.000000; 0.000000; 0.000000; 0.000000; 0.000000; 0.000000; 0.000000; 0.000000; 0.000000; 0.000000; 0.000000; 0.000000; 0.000000; 0.000000; 0.000000; 0.000000; 0.000000; 0.000000; 0.000000; 0.000000; 0.000000; 5493; 0
0; 2412380180;919.932249; 2068; 1984; 3060; 1734; 1460; 1654; 1957; 0697; 11944; 0000; 1705; 1671; 0000; 0000; 3758; 0000; 2042; 1216; 1080; 49.608742; 1515;  13.146828;  33.351624; -990.987061; -0.026356; -0.083268;  0.108640; -0.137348;  0.624942;  0.000000;  759.000000; -1927.000000;  -1212; -2415; 52956; 0000; 0000; -38059; -34508; 000000;  3.565704; -2.971961;  0.000000; 0000; 0000; 0000; 0000; 0000; 290717696; 000; 000; 000; 000; 255; 255; 255; 255; 156; 135; -0.004717;  346.101318; -55; 029; -23; -20.057739; 000; 000; 000;  0.000000; 0000; 0000; 0000; 0000; 0209; 0.000000; 0000; 0209;  0.000000;  0.000000;  0.000000; 0; 0;  1.500000;-0.042159; 0.056241;-0.021170;  0.000000;  0.000000;  0.000000; 0; -0.049634;  0.018913;  2.963135; -0.000037;  0.000016;  0.000014;  209; 919.927430; 0049; -2844.000000;  1083.000000;  169775.000000; 0209; 0.000000; 0.000000; 0.000000 ; 16679; 0.000000; 0.000000; 0.000000; 0.000000; 0.000000; 0.000000; 0.000000; 0.000000; 0.000000; 0.000000; 0.000000; 0.000000; 0000; 0000; -0.982907; -0.176555; 0.052180; 0.177292; -0.984110; 0.009811; 0.049619; 0.018894; 0.998589; 0.000000; 0.000000; 0.000000; 0; 0.000000; 0.000000; 0.000000; 0.000000; -1; 88; 72; 1; 37; 24; 0; 73; 20; 0; 119; 24; 0; 158; 2; 0; 9; 56; 0; 51; 54; 0; 85; 54; 0; 119; 54; 0; 149; 54; 0; 17; 84; 0; 51; 90; 0; 85; 90; 0; 119; 90; 0; 149; 90; 0; 7; 115; 1; 38; 109; 0; 85; 119; 1; 118; 118; 1; 144; 119; 0; 0; 0; 0; 0; 0; 0; 0; 0; 0; 0; 0; 0; 0; 0; 0; 0; 0; 0; 0; 0; 0; 0; 0; 0; 0; 0; 0; 0; 0; 0; 0; 0; 0; 0; 0; 0; 0; 0; 0; 0; 0; 0; 0; 0; 0; 0; 0; 0; 0; 0; 0; 0; 0; 0; 0.000000; 0.000000; 0.000000; 0.000000; 0.000000; 0.000000; 0.000000; 0.000000; 0.000000; 0.000000; 0.000000; 0.000000; 0.000000; 0.000000; 0.000000; 0.000000; 0.000000; 0.000000; 0.000000; 0.000000; 0.000000; 0.000000; 0.000000; 0.000000; 0.000000; 0.000000; 4426; 0
0; 2412380180;919.937272; 2068; 1984; 3060; 1734; 1461; 1654; 1956; 0702; 11944; 0000; 1705; 1671; 0772; 2094; 0000; 0000; 2177; 0917; 1029; 49.608406; 1515;  11.620979;  34.340996; -991.519287;  0.049258;  0.027552;  0.069865; -0.137342;  0.624949;  0.000000;  671.000000; -1983.000000;  -1212; -2415; 52956; 0000; 0000; -38059; -34508; 000000;  3.565704; -2.971961;  0.000000; 0000; 0000; 0000; 0000; 0000; 290717696; 000; 000; 000; 000; 255; 255; 255; 255; 156; 135; -0.004717;  346.101318; -55; 029; -23; -20.057739; 000; 000; 000;  0.000000; 0000; 0000; 0000; 0000; 0209; 0.000000; 0000; 0209;  0.000000;  0.000000;  0.000000; 0; 0;  1.500000;-0.042159; 0.056241;-0.021170;  0.000000;  0.000000;  0.000000; 0; -0.049634;  0.018913;  2.963135; -0.000037;  0.000016;  0.000014;  209; 919.927430; 0049; -2844.000000;  1084.000000;  169775.000000; 0209; 0.000000; 0.000000; 0.000000 ; 16679; 0.000000; 0.000000; 0.000000; 0.000000; 0.000000; 0.000000; 0.000000; 0.000000; 0.000000; 0.000000; 0.000000; 0.000000; 0000; 0000; -0.982907; -0.176555; 0.052182; 0.177292; -0.984109; 0.009811; 0.049620; 0.018895; 0.998589; 0.000000; 0.000000; 0.000000; 0; 0.000000; 0.000000; 0.000000; 0.000000; -1; 88; 72; 1; 37; 24; 0; 73; 20; 0; 119; 24; 0; 158; 2; 0; 9; 56; 0; 51; 54; 0; 85; 54; 0; 119; 54; 0; 149; 54; 0; 17; 84; 0; 51; 90; 0; 85; 90; 0; 119; 90; 0; 149; 90; 0; 7; 115; 1; 38; 109; 0; 85; 119; 1; 118; 118; 1; 144; 119; 0; 0; 0; 0; 0; 0; 0; 0; 0; 0; 0; 0; 0; 0; 0; 0; 0; 0; 0; 0; 0; 0; 0; 0; 0; 0; 0; 0; 0; 0; 0; 0; 0; 0; 0; 0; 0; 0; 0; 0; 0; 0; 0; 0; 0; 0; 0; 0; 0; 0; 0; 0; 0; 0; 0; 0.000000; 0.000000; 0.000000; 0.000000; 0.000000; 0.000000; 0.000000; 0.000000; 0.000000; 0.000000; 0.000000; 0.000000; 0.000000; 0.000000; 0.000000; 0.000000; 0.000000; 0.000000; 0.000000; 0.000000; 0.000000; 0.000000; 0.000000; 0.000000; 0.000000; 0.000000; 4985; 0
0; 2412380180;919.942247; 2068; 1984; 3060; 1734; 1460; 1654; 1959; 0699; 11944; 0000; 1705; 1671; 2214; 2332; 0001; 0001; 2315; 1041; 0977; 49.608070; 1514;  12.508453;  35.905884; -991.169189;  0.118372;  0.183721;  0.063820; -0.137327;  0.624952;  0.000000;  722.000000; -2074.000000;  -1212; -2415; 52956; 0000; 0000; -38059; -34508; 000000;  3.565704; -2.971961;  0.000000; 0000; 0000; 0000; 0000; 0000; 290717696; 000; 000; 000; 000; 255; 255; 255; 255; 156; 135; -0.004717;  346.101318; -55; 029; -23; -20.057739; 000; 000; 000;  0.000000; 0000; 0000; 0000; 0000; 0209; 0.000000; 0000; 0209;  0.000000;  0.000000;  0.000000; 0; 0;  1.500000;-0.042159; 0.056241;-0.021170;  0.000000;  0.000000;  0.000000; 0; -0.049634;  0.018913;  2.963135; -0.000037;  0.000016;  0.000014;  209; 919.927430; 0049; -2843.000000;  1084.000000;  169775.000000; 0209; 0.000000; 0.000000; 0.000000 ; 16679; 0.000000; 0.000000; 0.000000; 0.000000; 0.000000; 0.000000; 0.000000; 0.000000; 0.000000; 0.000000; 0.000000; 0.000000; 0000; 0000; -0.982907; -0.176556; 0.052168; 0.177293; -0.984109; 0.009816; 0.049606; 0.018897; 0.998590; 0.000000; 0.000000; 0.000000; 0; 0.000000; 0.000000; 0.000000; 0.000000; -1; 88; 72; 1; 37; 24; 0; 73; 20; 0; 119; 24; 0; 158; 2; 0; 9; 56; 0; 51; 54; 0; 85; 54; 0; 119; 54; 0; 149; 54; 0; 17; 84; 0; 51; 90; 0; 85; 90; 0; 119; 90; 0; 149; 90; 0; 7; 115; 1; 38; 109; 0; 85; 119; 1; 118; 118; 1; 144; 119; 0; 0; 0; 0; 0; 0; 0; 0; 0; 0; 0; 0; 0; 0; 0; 0; 0; 0; 0; 0; 0; 0; 0; 0; 0; 0; 0; 0; 0; 0; 0; 0; 0; 0; 0; 0; 0; 0; 0; 0; 0; 0; 0; 0; 0; 0; 0; 0; 0; 0; 0; 0; 0; 0; 0; 0.000000; 0.000000; 0.000000; 0.000000; 0.000000; 0.000000; 0.000000; 0.000000; 0.000000; 0.000000; 0.000000; 0.000000; 0.000000; 0.000000; 0.000000; 0.000000; 0.000000; 0.000000; 0.000000; 0.000000; 0.000000; 0.000000; 0.000000; 0.000000; 0.000000; 0.000000; 4937; 0
0; 2412380180;919.947647; 2068; 1988; 3060; 1734; 1461; 1655; 1957; 0700; 11944; 0000; 1705; 1671; 0000; 0000; 3758; 0000; 2450; 0778; 0927; 49.607735; 1515;  11.814060;  35.184761; -990.865723;  0.066047;  0.073893;  0.013769; -0.137316;  0.624958;  0.000000;  682.000000; -2033.000000;  -1212; -2415; 52956; 0000; 0000; -38059; -34508; 000000;  3.565704; -2.971961;  0.000000; 0000; 0000; 0000; 0000; 0000; 290717696; 000; 000; 000; 000; 255; 255; 255; 255; 156; 135; -0.004717;  346.101318; -55; 029; -23; -20.057739; 000; 000; 000;  0.000000; 0000; 0000; 0000; 0000; 0209; 0.000000; 0000; 0209;  0.000000;  0.000000;  0.000000; 0; 0;  1.500000;-0.042159; 0.056241;-0.021170;  0.000000;  0.000000;  0.000000; 0; -0.049626;  0.018922;  2.963135;  0.000008; -0.000007;  0.000024;  209; 919.944047; 0049; -2843.000000;  1084.000000;  169774.000000; 0209; 0.000000; 0.000000; 0.000000 ; 16679; 0.000000; 0.000000; 0.000000; 0.000000; 0.000000; 0.000000; 0.000000; 0.000000; 0.000000; 0.000000; 0.000000; 0.000000; 0000; 0000; -0.982906; -0.176561; 0.052165; 0.177298; -0.984108; 0.009817; 0.049603; 0.018898; 0.998590; 0.000000; 0.000000; 0.000000; 0; 0.000000; 0.000000; 0.000000; 0.000000; -1; 88; 72; 1; 37; 24; 0; 73; 20; 0; 119; 24; 0; 158; 2; 0; 9; 56; 0; 51; 54; 0; 85; 54; 0; 119; 54; 0; 149; 54; 0; 17; 84; 0; 51; 90; 0; 85; 90; 0; 119; 90; 0; 149; 90; 0; 7; 115; 1; 38; 109; 0; 85; 119; 1; 118; 118; 1; 144; 119; 0; 0; 0; 0; 0; 0; 0; 0; 0; 0; 0; 0; 0; 0; 0; 0; 0; 0; 0; 0; 0; 0; 0; 0; 0; 0; 0; 0; 0; 0; 0; 0; 0; 0; 0; 0; 0; 0; 0; 0; 0; 0; 0; 0; 0; 0; 0; 0; 0; 0; 0; 0; 0; 0; 0; 0.000000; 0.000000; 0.000000; 0.000000; 0.000000; 0.000000; 0.000000; 0.000000; 0.000000; 0.000000; 0.000000; 0.000000; 0.000000; 0.000000; 0.000000; 0.000000; 0.000000; 0.000000; 0.000000; 0.000000; 0.000000; 0.000000; 0.000000; 0.000000; 0.000000; 0.000000; 5360; 0
0; 2412380180;919.952217; 2068; 1988; 3060; 1734; 1461; 1654; 1954; 0701; 11944; 0000; 1705; 1672; 0000; 0000; 3758; 0000; 2586; 0543; 0876; 49.608963; 1514;  12.603668;  33.498474; -991.153320;  0.174436;  0.000559;  0.036591; -0.137314;  0.624960;  0.000000;  728.000000; -1935.000000;  -1212; -2415; 52956; 0000; 0000; -38059; -34508; 000000;  3.565704; -2.971961;  0.000000; 0000; 0000; 0000; 0000; 0000; 290717696; 000; 000; 000; 000; 255; 255; 255; 255; 156; 135; -0.004717;  346.101318; -55; 029; -23; -20.057739; 000; 000; 000;  0.000000; 0000; 0000; 0000; 0000; 0209; 0.000000; 0000; 0209;  0.000000;  0.000000;  0.000000; 0; 0;  1.500000;-0.042159; 0.056241;-0.021170;  0.000000;  0.000000;  0.000000; 0; -0.049626;  0.018922;  2.963135;  0.000008; -0.000007;  0.000024;  209; 919.944047; 0049; -2843.000000;  1084.000000;  169774.000000; 0209; 0.000000; 0.000000; 0.000000 ; 16680; 0.000000; 0.000000; 0.000000; 0.000000; 0.000000; 0.000000; 0.000000; 0.000000; 0.000000; 0.000000; 0.000000; 0.000000; 0000; 0000; -0.982906; -0.176564; 0.052168; 0.177301; -0.984107; 0.009830; 0.049604; 0.018912; 0.998590; 0.000000; 0.000000; 0.000000; 0; 0.000000; 0.000000; 0.000000; 0.000000; -1; 88; 72; 1; 37; 24; 0; 73; 20; 0; 119; 24; 0; 158; 2; 0; 9; 56; 0; 51; 54; 0; 85; 54; 0; 119; 54; 0; 149; 54; 0; 17; 84; 0; 51; 90; 0; 85; 90; 0; 119; 90; 0; 149; 90; 0; 7; 115; 1; 38; 109; 0; 85; 119; 1; 118; 118; 1; 144; 119; 0; 0; 0; 0; 0; 0; 0; 0; 0; 0; 0; 0; 0; 0; 0; 0; 0; 0; 0; 0; 0; 0; 0; 0; 0; 0; 0; 0; 0; 0; 0; 0; 0; 0; 0; 0; 0; 0; 0; 0; 0; 0; 0; 0; 0; 0; 0; 0; 0; 0; 0; 0; 0; 0; 0; 0.000000; 0.000000; 0.000000; 0.000000; 0.000000; 0.000000; 0.000000; 0.000000; 0.000000; 0.000000; 0.000000; 0.000000; 0.000000; 0.000000; 0.000000; 0.000000; 0.000000; 0.000000; 0.000000; 0.000000; 0.000000; 0.000000; 0.000000; 0.000000; 0.000000; 0.000000; 4530; 0
0; 2412380180;919.957183; 2064; 1988; 3060; 1733; 1460; 1654; 1952; 0698; 11944; 0000; 1705; 1671; 0000; 0000; 3758; 0000; 2721; 0478; 0825; 49.610191; 1514;  11.288982;  32.112877; -991.352539; -0.067042;  0.121966; -0.004576; -0.137319;  0.624969;  0.000000;  652.000000; -1855.000000;  -1212; -2415; 52956; 0000; 0000; -38059; -34508; 000000;  3.565704; -2.971961;  0.000000; 0000; 0000; 0000; 0000; 0000; 290717696; 000; 000; 000; 000; 255; 255; 255; 255; 156; 135; -0.004717;  346.101318; -55; 029; -23; -20.057739; 000; 000; 000;  0.000000; 0000; 0000; 0000; 0000; 0209; 0.000000; 0000; 0209;  0.000000;  0.000000;  0.000000; 0; 0;  1.500000;-0.042159; 0.056241;-0.021170;  0.000000;  0.000000;  0.000000; 0; -0.049626;  0.018922;  2.963135;  0.000008; -0.000007;  0.000024;  209; 919.944047; 0049; -2842.000000;  1084.000000;  169774.000000; 0209; 0.000000; 0.000000; 0.000000 ; 16680; 0.000000; 0.000000; 0.000000; 0.000000; 0.000000; 0.000000; 0.000000; 0.000000; 0.000000; 0.000000; 0.000000; 0.000000; 0000; 0000; -0.982905; -0.176571; 0.052162; 0.177308; -0.984106; 0.009828; 0.049598; 0.018909; 0.998590; 0.000000; 0.000000; 0.000000; 0; 0.000000; 0.000000; 0.000000; 0.000000; -1; 88; 72; 1; 37; 24; 0; 73; 20; 0; 119; 24; 0; 158; 2; 0; 9; 56; 0; 51; 54; 0; 85; 54; 0; 119; 54; 0; 149; 54; 0; 17; 84; 0; 51; 90; 0; 85; 90; 0; 119; 90; 0; 149; 90; 0; 7; 115; 1; 38; 109; 0; 85; 119; 1; 118; 118; 1; 144; 119; 0; 0; 0; 0; 0; 0; 0; 0; 0; 0; 0; 0; 0; 0; 0; 0; 0; 0; 0; 0; 0; 0; 0; 0; 0; 0; 0; 0; 0; 0; 0; 0; 0; 0; 0; 0; 0; 0; 0; 0; 0; 0; 0; 0; 0; 0; 0; 0; 0; 0; 0; 0; 0; 0; 0; 0.000000; 0.000000; 0.000000; 0.000000; 0.000000; 0.000000; 0.000000; 0.000000; 0.000000; 0.000000; 0.000000; 0.000000; 0.000000; 0.000000; 0.000000; 0.000000; 0.000000; 0.000000; 0.000000; 0.000000; 0.000000; 0.000000; 0.000000; 0.000000; 0.000000; 0.000000; 4926; 0
0; 2412380180;919.962234; 2064; 1988; 3060; 1734; 1461; 1655; 1957; 0700; 11944; 0000; 1706; 1671; 0000; 0000; 3758; 0000; 2857; 0221; 0774; 49.611412; 1515;  9.855240;  30.848778; -991.385254; -0.034414; -0.144829; -0.033221; -0.137331;  0.624986;  0.000000;  569.000000; -1782.000000;  -1212; -2415; 52956; 0000; 0000; -38059; -34508; 000000;  3.565704; -2.971961;  0.000000; 0000; 0000; 0000; 0000; 0000; 290717696; 000; 000; 000; 000; 255; 255; 255; 255; 156; 135; -0.004717;  346.101318; -55; 029; -23; -20.057739; 000; 000; 000;  0.000000; 0000; 0000; 0000; 0000; 0209; 0.000000; 0000; 0209;  0.000000;  0.000000;  0.000000; 0; 0;  1.500000;-0.042159; 0.056241;-0.021170;  0.000000;  0.000000;  0.000000; 0; -0.049626;  0.018922;  2.963135;  0.000035;  0.000025;  0.000012;  209; 919.944047; 0049; -2844.000000;  1085.000000;  169773.000000; 0209; 0.000000; 0.000000; 0.000000 ; 16680; 0.000000; 0.000000; 0.000000; 0.000000; 0.000000; 0.000000; 0.000000; 0.000000; 0.000000; 0.000000; 0.000000; 0.000000; 0000; 0000; -0.982902; -0.176580; 0.052184; 0.177318; -0.984105; 0.009828; 0.049619; 0.018913; 0.998589; 0.000000; 0.000000; 0.000000; 0; 0.000000; 0.000000; 0.000000; 0.000000; -1; 88; 72; 1; 37; 24; 0; 73; 20; 0; 119; 24; 0; 158; 2; 0; 9; 56; 0; 51; 54; 0; 85; 54; 0; 119; 54; 0; 149; 54; 0; 17; 84; 0; 51; 90; 0; 85; 90; 0; 119; 90; 0; 149; 90; 0; 7; 115; 1; 38; 109; 0; 85; 119; 1; 118; 118; 1; 144; 119; 0; 0; 0; 0; 0; 0; 0; 0; 0; 0; 0; 0; 0; 0; 0; 0; 0; 0; 0; 0; 0; 0; 0; 0; 0; 0; 0; 0; 0; 0; 0; 0; 0; 0; 0; 0; 0; 0; 0; 0; 0; 0; 0; 0; 0; 0; 0; 0; 0; 0; 0; 0; 0; 0; 0; 0.000000; 0.000000; 0.000000; 0.000000; 0.000000; 0.000000; 0.000000; 0.000000; 0.000000; 0.000000; 0.000000; 0.000000; 0.000000; 0.000000; 0.000000; 0.000000; 0.000000; 0.000000; 0.000000; 0.000000; 0.000000; 0.000000; 0.000000; 0.000000; 0.000000; 0.000000; 5013; 0
0; 2412380180;919.967187; 2068; 1988; 3060; 1734; 1461; 1654; 1957; 0698; 11944; 0000; 1705; 1671; 0000; 0000; 3758; 0000; 2994; 0092; 0723; 49.611069; 1513;  9.764807;  31.810043; -991.357422; -0.047223;  0.100734;  0.069355; -0.137338;  0.625004;  0.000000;  564.000000; -1837.000000;  -1212; -2415; 52956; 0000; 0000; -38059; -34508; 000000;  3.565704; -2.971961;  0.000000; 0000; 0000; 0000; 0000; 0000; 290717696; 000; 000; 000; 000; 255; 255; 255; 255; 156; 135; -0.004717;  346.101318; -55; 029; -23; -20.057739; 000; 000; 000;  0.000000; 0000; 0000; 0000; 0000; 0209; 0.000000; 0000; 0209;  0.000000;  0.000000;  0.000000; 0; 0;  1.500000;-0.042159; 0.056241;-0.021170;  0.000000;  0.000000;  0.000000; 0; -0.049618;  0.018934;  2.963120;  0.000035;  0.000025;  0.000012;  209; 919.960663; 0049; -2844.000000;  1085.000000;  169773.000000; 0209; 0.000000; 0.000000; 0.000000 ; 16680; 0.000000; 0.000000; 0.000000; 0.000000; 0.000000; 0.000000; 0.000000; 0.000000; 0.000000; 0.000000; 0.000000; 0.000000; 0000; 0000; -0.982902; -0.176581; 0.052184; 0.177319; -0.984104; 0.009827; 0.049619; 0.018913; 0.998589; 0.000000; 0.000000; 0.000000; 0; 0.000000; 0.000000; 0.000000; 0.000000; -1; 88; 72; 1; 37; 24; 0; 73; 20; 0; 119; 24; 0; 158; 2; 0; 9; 56; 0; 51; 54; 0; 85; 54; 0; 119; 54; 0; 149; 54; 0; 17; 84; 0; 51; 90; 0; 85; 90; 0; 119; 90; 0; 149; 90; 0; 7; 115; 1; 38; 109; 0; 85; 119; 1; 118; 118; 1; 144; 119; 0; 0; 0; 0; 0; 0; 0; 0; 0; 0; 0; 0; 0; 0; 0; 0; 0; 0; 0; 0; 0; 0; 0; 0; 0; 0; 0; 0; 0; 0; 0; 0; 0; 0; 0; 0; 0; 0; 0; 0; 0; 0; 0; 0; 0; 0; 0; 0; 0; 0; 0; 0; 0; 0; 0; 0.000000; 0.000000; 0.000000; 0.000000; 0.000000; 0.000000; 0.000000; 0.000000; 0.000000; 0.000000; 0.000000; 0.000000; 0.000000; 0.000000; 0.000000; 0.000000; 0.000000; 0.000000; 0.000000; 0.000000; 0.000000; 0.000000; 0.000000; 0.000000; 0.000000; 0.000000; 4913; 0
0; 2412380180;919.972223; 2068; 1988; 3060; 1733; 1460; 1654; 1954; 0699; 11944; 0000; 1706; 1671; 0000; 0000; 3758; 0000; 3130; 0109; 0672; 49.610725; 1514;  10.103592;  31.973366; -991.307861; -0.120167;  0.097530; -0.011370; -0.137344;  0.625019;  0.000000;  583.000000; -1847.000000;  -1212; -2415; 52956; 0000; 0000; -38059; -34508; 000000;  3.565704; -2.971961;  0.000000; 0000; 0000; 0000; 0000; 0000; 290717696; 000; 000; 000; 000; 255; 255; 255; 255; 156; 135; -0.004717;  346.101318; -55; 029; -23; -20.057739; 000; 000; 000;  0.000000; 0000; 0000; 0000; 0000; 0209; 0.000000; 0000; 0209;  0.000000;  0.000000;  0.000000; 0; 0;  1.500000;-0.042159; 0.056241;-0.021170;  0.000000;  0.000000;  0.000000; 0; -0.049618;  0.018934;  2.963120;  0.000035;  0.000025;  0.000012;  209; 919.960663; 0049; -2844.000000;  1084.000000;  169773.000000; 0209; 0.000000; 0.000000; 0.000000 ; 16680; 0.000000; 0.000000; 0.000000; 0.000000; 0.000000; 0.000000; 0.000000; 0.000000; 0.000000; 0.000000; 0.000000; 0.000000; 0000; 0000; -0.982901; -0.176589; 0.052182; 0.177327; -0.984103; 0.009820; 0.049619; 0.018906; 0.998589; 0.000000; 0.000000; 0.000000; 0; 0.000000; 0.000000; 0.000000; 0.000000; -1; 88; 72; 1; 37; 24; 0; 73; 20; 0; 119; 24; 0; 158; 2; 0; 9; 56; 0; 51; 54; 0; 85; 54; 0; 119; 54; 0; 149; 54; 0; 17; 84; 0; 51; 90; 0; 85; 90; 0; 119; 90; 0; 149; 90; 0; 7; 115; 1; 38; 109; 0; 85; 119; 1; 118; 118; 1; 144; 119; 0; 0; 0; 0; 0; 0; 0; 0; 0; 0; 0; 0; 0; 0; 0; 0; 0; 0; 0; 0; 0; 0; 0; 0; 0; 0; 0; 0; 0; 0; 0; 0; 0; 0; 0; 0; 0; 0; 0; 0; 0; 0; 0; 0; 0; 0; 0; 0; 0; 0; 0; 0; 0; 0; 0; 0.000000; 0.000000; 0.000000; 0.000000; 0.000000; 0.000000; 0.000000; 0.000000; 0.000000; 0.000000; 0.000000; 0.000000; 0.000000; 0.000000; 0.000000; 0.000000; 0.000000; 0.000000; 0.000000; 0.000000; 0.000000; 0.000000; 0.000000; 0.000000; 0.000000; 0.000000; 4999; 0
0; 2412380180;919.977186; 2068; 1992; 3060; 1733; 1461; 1654; 1956; 0701; 11944; 0000; 1705; 1672; 0772; 2094; 0000; 0000; 3265; 0026; 0621; 49.611946; 1515;  12.412539;  30.884346; -991.317871; -0.071493; -0.077492;  0.070907; -0.137356;  0.625022;  0.000000;  717.000000; -1784.000000;  -1212; -2415; 52956; 0000; 0000; -38059; -34508; 000000;  3.565704; -2.971961;  0.000000; 0000; 0000; 0000; 0000; 0000; 290717696; 000; 000; 000; 000; 255; 255; 255; 255; 156; 135; -0.004717;  346.101318; -55; 029; -23; -20.057739; 000; 000; 000;  0.000000; 0000; 0000; 0000; 0000; 0209; 0.000000; 0000; 0209;  0.000000;  0.000000;  0.000000; 0; 0;  1.500000;-0.042159; 0.056241;-0.021170;  0.000000;  0.000000;  0.000000; 0; -0.049618;  0.018934;  2.963120; -0.000020;  0.000013;  0.000002;  209; 919.960663; 0049; -2844.000000;  1084.000000;  169773.000000; 0209; 0.000000; 0.000000; 0.000000 ; 16680; 0.000000; 0.000000; 0.000000; 0.000000; 0.000000; 0.000000; 0.000000; 0.000000; 0.000000; 0.000000; 0.000000; 0.000000; 0000; 0000; -0.982900; -0.176590; 0.052191; 0.177328; -0.984103; 0.009819; 0.049627; 0.018906; 0.998589; 0.000000; 0.000000; 0.000000; 0; 0.000000; 0.000000; 0.000000; 0.000000; -1; 88; 72; 1; 37; 24; 0; 73; 20; 0; 119; 24; 0; 158; 2; 0; 9; 56; 0; 51; 54; 0; 85; 54; 0; 119; 54; 0; 149; 54; 0; 17; 84; 0; 51; 90; 0; 85; 90; 0; 119; 90; 0; 149; 90; 0; 7; 115; 1; 38; 109; 0; 85; 119; 1; 118; 118; 1; 144; 119; 0; 0; 0; 0; 0; 0; 0; 0; 0; 0; 0; 0; 0; 0; 0; 0; 0; 0; 0; 0; 0; 0; 0; 0; 0; 0; 0; 0; 0; 0; 0; 0; 0; 0; 0; 0; 0; 0; 0; 0; 0; 0; 0; 0; 0; 0; 0; 0; 0; 0; 0; 0; 0; 0; 0; 0.000000; 0.000000; 0.000000; 0.000000; 0.000000; 0.000000; 0.000000; 0.000000; 0.000000; 0.000000; 0.000000; 0.000000; 0.000000; 0.000000; 0.000000; 0.000000; 0.000000; 0.000000; 0.000000; 0.000000; 0.000000; 0.000000; 0.000000; 0.000000; 0.000000; 0.000000; 4924; 0
0; 2412380180;920.023167; 2064; 1992; 3068; 1733; 1460; 1654; 1955; 0700; 11944; 0000; 1705; 1672; 2214; 2335; 0001; 0003; 4489; 0000; 0162; 49.613525; 1514;  8.777075;  30.545990; -999.866699; -0.314157;  0.035211;  0.084372; -0.137449;  0.625066;  0.000000;  502.000000; -1749.000000;  -1212; -2415; 52956; 0000; 0000; -38059; -34508; 000000;  3.565704; -2.971961;  0.000000; 0000; 0000; 0000; 0000; 0000; 290717696; 000; 000; 000; 000; 255; 255; 255; 255; 156; 135; -0.004717;  346.101318; -55; 029; -23; -20.057739; 000; 000; 000;  0.000000; 0000; 0000; 0000; 0000; 0209; 0.000000; 0000; 0209;  0.000000;  0.000000;  0.000000; 0; 0;  1.500000;-0.042159; 0.056241;-0.021170;  0.000000;  0.000000;  0.000000; 0; -0.049639;  0.018912;  2.963103;  0.000000;  0.000000;  0.000000;  209; 920.010534; 0049; -2844.000000;  1079.000000;  169773.000000; 0209; 0.000000; 0.000000; 0.000000 ; 16681; 0.000000; 0.000000; 0.000000; 0.000000; 0.000000; 0.000000; 0.000000; 0.000000; 0.000000; 0.000000; 0.000000; 0.000000; 0000; 0000; -0.982900; -0.176592; 0.052175; 0.177325; -0.984104; 0.009728; 0.049628; 0.018813; 0.998591; 0.000000; 0.000000; 0.000000; 0; 0.000000; 0.000000; 0.000000; 0.000000; -1; 88; 72; 1; 37; 24; 0; 73; 20; 0; 119; 24; 0; 158; 2; 0; 9; 56; 0; 51; 54; 0; 85; 54; 0; 119; 54; 0; 149; 54; 0; 17; 84; 0; 51; 90; 0; 85; 90; 0; 119; 90; 0; 149; 90; 0; 7; 115; 1; 38; 109; 0; 85; 119; 1; 118; 118; 1; 144; 119; 0; 0; 0; 0; 0; 0; 0; 0; 0; 0; 0; 0; 0; 0; 0; 0; 0; 0; 0; 0; 0; 0; 0; 0; 0; 0; 0; 0; 0; 0; 0; 0; 0; 0; 0; 0; 0; 0; 0; 0; 0; 0; 0; 0; 0; 0; 0; 0; 0; 0; 0; 0; 0; 0; 0; 0.000000; 0.000000; 0.000000; 0.000000; 0.000000; 0.000000; 0.000000; 0.000000; 0.000000; 0.000000; 0.000000; 0.000000; 0.000000; 0.000000; 0.000000; 0.000000; 0.000000; 0.000000; 0.000000; 0.000000; 0.000000; 0.000000; 0.000000; 0.000000; 0.000000; 0.000000; 528; 0
0; 2412380180;920.027332; 2064; 1992; 3068; 1733; 1460; 1654; 1954; 0696; 11944; 0000; 1705; 1671; 0000; 0000; 3758; 0000; 4625; 0000; 0120; 49.613174; 1513;  7.968628;  30.027618; -999.495850; -0.300599;  0.085644;  0.079499; -0.137465;  0.625090;  0.000000;  456.000000; -1720.000000;  -1212; -2415; 52956; 0000; 0000; -38059; -34508; 000000;  3.565704; -2.971961;  0.000000; 0000; 0000; 0000; 0000; 0000; 290717696; 000; 000; 000; 000; 255; 255; 255; 255; 156; 135; -0.004717;  346.101318; -55; 029; -23; -20.057739; 000; 000; 000;  0.000000; 0000; 0000; 0000; 0000; 0209; 0.000000; 0000; 0209;  0.000000;  0.000000;  0.000000; 0; 0;  1.500000;-0.042159; 0.056241;-0.021170;  0.000000;  0.000000;  0.000000; 0; -0.049639;  0.018912;  2.963103; -0.000052;  0.000008;  0.000024;  209; 920.010534; 0049; -2844.000000;  1078.000000;  169773.000000; 0209; 0.000000; 0.000000; 0.000000 ; 16681; 0.000000; 0.000000; 0.000000; 0.000000; 0.000000; 0.000000; 0.000000; 0.000000; 0.000000; 0.000000; 0.000000; 0.000000; 0000; 0000; -0.982900; -0.176593; 0.052178; 0.177325; -0.984105; 0.009709; 0.049634; 0.018796; 0.998591; 0.000000; 0.000000; 0.000000; 0; 0.000000; 0.000000; 0.000000; 0.000000; -1; 88; 72; 1; 37; 24; 0; 73; 20; 0; 119; 24; 0; 158; 2; 0; 9; 56; 0; 51; 54; 0; 85; 54; 0; 119; 54; 0; 149; 54; 0; 17; 84; 0; 51; 90; 0; 85; 90; 0; 119; 90; 0; 149; 90; 0; 7; 115; 1; 38; 109; 0; 85; 119; 1; 118; 118; 1; 144; 119; 0; 0; 0; 0; 0; 0; 0; 0; 0; 0; 0; 0; 0; 0; 0; 0; 0; 0; 0; 0; 0; 0; 0; 0; 0; 0; 0; 0; 0; 0; 0; 0; 0; 0; 0; 0; 0; 0; 0; 0; 0; 0; 0; 0; 0; 0; 0; 0; 0; 0; 0; 0; 0; 0; 0; 0.000000; 0.000000; 0.000000; 0.000000; 0.000000; 0.000000; 0.000000; 0.000000; 0.000000; 0.000000; 0.000000; 0.000000; 0.000000; 0.000000; 0.000000; 0.000000; 0.000000; 0.000000; 0.000000; 0.000000; 0.000000; 0.000000; 0.000000; 0.000000; 0.000000; 0.000000; 4152; 0
0; 2412380180;920.032142; 2064; 1992; 3068; 1734; 1461; 1654; 1959; 0699; 11944; 0000; 1706; 1672; 0000; 0000; 3758; 0000; 4762; 0000; 0120; 49.612823; 1514;  8.836538;  28.228912; -999.592285; -0.111449;  0.106646;  0.079433; -0.137491;  0.625110;  0.000000;  506.000000; -1617.000000;  -1212; -2415; 52956; 0000; 0000; -38059; -34508; 000000;  3.565704; -2.971961;  0.000000; 0000; 0000; 0000; 0000; 0000; 290717696; 000; 000; 000; 000; 255; 255; 255; 255; 156; 135; -0.004717;  346.101318; -55; 029; -23; -20.057739; 000; 000; 000;  0.000000; 0000; 0000; 0000; 0000; 0209; 0.000000; 0000; 0209;  0.000000;  0.000000;  0.000000; 0; 0;  1.500000;-0.042159; 0.056241;-0.021170;  0.000000;  0.000000;  0.000000; 0; -0.049654;  0.018820;  2.963103; -0.000052;  0.000008;  0.000024;  209; 920.027179; 0049; -2845.000000;  1078.000000;  169773.000000; 0209; 0.000000; 0.000000; 0.000000 ; 16681; 0.000000; 0.000000; 0.000000; 0.000000; 0.000000; 0.000000; 0.000000; 0.000000; 0.000000; 0.000000; 0.000000; 0.000000; 0000; 0000; -0.982900; -0.176593; 0.052179; 0.177325; -0.984104; 0.009713; 0.049635; 0.018799; 0.998590; 0.000000; 0.000000; 0.000000; 0; 0.000000; 0.000000; 0.000000; 0.000000; -1; 88; 72; 1; 37; 24; 0; 73; 20; 0; 119; 24; 0; 158; 2; 0; 9; 56; 0; 51; 54; 0; 85; 54; 0; 119; 54; 0; 149; 54; 0; 17; 84; 0; 51; 90; 0; 85; 90; 0; 119; 90; 0; 149; 90; 0; 7; 115; 1; 38; 109; 0; 85; 119; 1; 118; 118; 1; 144; 119; 0; 0; 0; 0; 0; 0; 0; 0; 0; 0; 0; 0; 0; 0; 0; 0; 0; 0; 0; 0; 0; 0; 0; 0; 0; 0; 0; 0; 0; 0; 0; 0; 0; 0; 0; 0; 0; 0; 0; 0; 0; 0; 0; 0; 0; 0; 0; 0; 0; 0; 0; 0; 0; 0; 0; 0.000000; 0.000000; 0.000000; 0.000000; 0.000000; 0.000000; 0.000000; 0.000000; 0.000000; 0.000000; 0.000000; 0.000000; 0.000000; 0.000000; 0.000000; 0.000000; 0.000000; 0.000000; 0.000000; 0.000000; 0.000000; 0.000000; 0.000000; 0.000000; 0.000000; 0.000000; 4778; 0
0; 2412380180;920.037126; 2064; 1988; 3068; 1734; 1460; 1654; 1957; 0699; 11944; 0000; 1705; 1672; 0000; 0000; 3758; 0000; 4897; 0000; 0120; 49.614037; 1515;  8.649313;  28.826958; -998.947998; -0.054460;  0.245432;  0.083390; -0.137514;  0.625132;  0.000000;  495.000000; -1652.000000;  -1212; -2415; 52956; 0000; 0000; -38059; -34508; 000000;  3.565704; -2.971961;  0.000000; 0000; 0000; 0000; 0000; 0000; 290717696; 000; 000; 000; 000; 255; 255; 255; 255; 156; 135; -0.004717;  346.101318; -55; 029; -23; -20.057739; 000; 000; 000;  0.000000; 0000; 0000; 0000; 0000; 0209; 0.000000; 0000; 0209;  0.000000;  0.000000;  0.000000; 0; 0;  1.500000;-0.042159; 0.056241;-0.021170;  0.000000;  0.000000;  0.000000; 0; -0.049654;  0.018820;  2.963103; -0.000052;  0.000008;  0.000024;  209; 920.027179; 0049; -2844.000000;  1078.000000;  169773.000000; 0209; 0.000000; 0.000000; 0.000000 ; 16681; 0.000000; 0.000000; 0.000000; 0.000000; 0.000000; 0.000000; 0.000000; 0.000000; 0.000000; 0.000000; 0.000000; 0.000000; 0000; 0000; -0.982901; -0.176593; 0.052171; 0.177325; -0.984104; 0.009722; 0.049624; 0.018807; 0.998591; 0.000000; 0.000000; 0.000000; 0; 0.000000; 0.000000; 0.000000; 0.000000; -1; 88; 72; 1; 37; 24; 0; 73; 20; 0; 119; 24; 0; 158; 2; 0; 9; 56; 0; 51; 54; 0; 85; 54; 0; 119; 54; 0; 149; 54; 0; 17; 84; 0; 51; 90; 0; 85; 90; 0; 119; 90; 0; 149; 90; 0; 7; 115; 1; 38; 109; 0; 85; 119; 1; 118; 118; 1; 144; 119; 0; 0; 0; 0; 0; 0; 0; 0; 0; 0; 0; 0; 0; 0; 0; 0; 0; 0; 0; 0; 0; 0; 0; 0; 0; 0; 0; 0; 0; 0; 0; 0; 0; 0; 0; 0; 0; 0; 0; 0; 0; 0; 0; 0; 0; 0; 0; 0; 0; 0; 0; 0; 0; 0; 0; 0.000000; 0.000000; 0.000000; 0.000000; 0.000000; 0.000000; 0.000000; 0.000000; 0.000000; 0.000000; 0.000000; 0.000000; 0.000000; 0.000000; 0.000000; 0.000000; 0.000000; 0.000000; 0.000000; 0.000000; 0.000000; 0.000000; 0.000000; 0.000000; 0.000000; 0.000000; 4946; 0
0; 2412380180;920.042108; 2064; 1992; 3068; 1734; 1461; 1655; 1952; 0699; 11944; 0000; 1705; 1672; 0000; 0000; 3758; 0000; 5035; 0000; 0120; 49.613686; 1515;  9.134396;  29.102547; -999.188721;  0.073714;  0.050138;  0.005206; -0.137535;  0.625150;  0.000000;  523.000000; -1668.000000;  -1212; -2415; 52956; 0000; 0000; -38059; -34508; 000000;  3.565704; -2.971961;  0.000000; 0000; 0000; 0000; 0000; 0000; 290717696; 000; 000; 000; 000; 255; 255; 255; 255; 156; 135; -0.004717;  346.101318; -55; 029; -23; -20.057739; 000; 000; 000;  0.000000; 0000; 0000; 0000; 0000; 0209; 0.000000; 0000; 0209;  0.000000;  0.000000;  0.000000; 0; 0;  1.500000;-0.042159; 0.056241;-0.021170;  0.000000;  0.000000;  0.000000; 0; -0.049654;  0.018820;  2.963103; -0.000052;  0.000008;  0.000024;  209; 920.027179; 0049; -2844.000000;  1079.000000;  169772.000000; 0209; 0.000000; 0.000000; 0.000000 ; 16681; 0.000000; 0.000000; 0.000000; 0.000000; 0.000000; 0.000000; 0.000000; 0.000000; 0.000000; 0.000000; 0.000000; 0.000000; 0000; 0000; -0.982899; -0.176598; 0.052179; 0.177331; -0.984103; 0.009738; 0.049630; 0.018825; 0.998590; 0.000000; 0.000000; 0.000000; 0; 0.000000; 0.000000; 0.000000; 0.000000; -1; 88; 72; 1; 37; 24; 0; 73; 20; 0; 119; 24; 0; 158; 2; 0; 9; 56; 0; 51; 54; 0; 85; 54; 0; 119; 54; 0; 149; 54; 0; 17; 84; 0; 51; 90; 0; 85; 90; 0; 119; 90; 0; 149; 90; 0; 7; 115; 1; 38; 109; 0; 85; 119; 1; 118; 118; 1; 144; 119; 0; 0; 0; 0; 0; 0; 0; 0; 0; 0; 0; 0; 0; 0; 0; 0; 0; 0; 0; 0; 0; 0; 0; 0; 0; 0; 0; 0; 0; 0; 0; 0; 0; 0; 0; 0; 0; 0; 0; 0; 0; 0; 0; 0; 0; 0; 0; 0; 0; 0; 0; 0; 0; 0; 0; 0.000000; 0.000000; 0.000000; 0.000000; 0.000000; 0.000000; 0.000000; 0.000000; 0.000000; 0.000000; 0.000000; 0.000000; 0.000000; 0.000000; 0.000000; 0.000000; 0.000000; 0.000000; 0.000000; 0.000000; 0.000000; 0.000000; 0.000000; 0.000000; 0.000000; 0.000000; 4943; 0
0; 2412380180;920.047138; 2064; 1992; 3064; 1733; 1460; 1654; 1953; 0697; 11944; 0000; 1706; 1671; 0000; 0000; 3758; 0000; 5170; 0000; 0120; 49.614899; 1514;  8.863474;  29.508987; -998.047119;  0.023738;  0.152084;  0.030759; -0.137554;  0.625170;  0.000000;  508.000000; -1693.000000;  -1212; -2415; 52956; 0000; 0000; -38059; -34508; 000000;  3.565704; -2.971961;  0.000000; 0000; 0000; 0000; 0000; 0000; 290717696; 000; 000; 000; 000; 255; 255; 255; 255; 156; 135; -0.004717;  346.101318; -55; 029; -23; -20.057739; 000; 000; 000;  0.000000; 0000; 0000; 0000; 0000; 0209; 0.000000; 0000; 0209;  0.000000;  0.000000;  0.000000; 0; 0;  1.500000;-0.042159; 0.056241;-0.021170;  0.000000;  0.000000;  0.000000; 0; -0.049650;  0.018849;  2.963096; -0.000045;  0.000042;  0.000024;  209; 920.043776; 0049; -2844.000000;  1080.000000;  169772.000000; 0209; 0.000000; 0.000000; 0.000000 ; 16681; 0.000000; 0.000000; 0.000000; 0.000000; 0.000000; 0.000000; 0.000000; 0.000000; 0.000000; 0.000000; 0.000000; 0.000000; 0000; 0000; -0.982899; -0.176602; 0.052178; 0.177336; -0.984102; 0.009750; 0.049627; 0.018837; 0.998590; 0.000000; 0.000000; 0.000000; 0; 0.000000; 0.000000; 0.000000; 0.000000; -1; 88; 72; 1; 37; 24; 0; 73; 20; 0; 119; 24; 0; 158; 2; 0; 9; 56; 0; 51; 54; 0; 85; 54; 0; 119; 54; 0; 149; 54; 0; 17; 84; 0; 51; 90; 0; 85; 90; 0; 119; 90; 0; 149; 90; 0; 7; 115; 1; 38; 109; 0; 85; 119; 1; 118; 118; 1; 144; 119; 0; 0; 0; 0; 0; 0; 0; 0; 0; 0; 0; 0; 0; 0; 0; 0; 0; 0; 0; 0; 0; 0; 0; 0; 0; 0; 0; 0; 0; 0; 0; 0; 0; 0; 0; 0; 0; 0; 0; 0; 0; 0; 0; 0; 0; 0; 0; 0; 0; 0; 0; 0; 0; 0; 0; 0.000000; 0.000000; 0.000000; 0.000000; 0.000000; 0.000000; 0.000000; 0.000000; 0.000000; 0.000000; 0.000000; 0.000000; 0.000000; 0.000000; 0.000000; 0.000000; 0.000000; 0.000000; 0.000000; 0.000000; 0.000000; 0.000000; 0.000000; 0.000000; 0.000000; 0.000000; 4993; 0
0; 2412380180;920.052137; 2064; 1992; 3064; 1734; 1460; 1654; 1957; 0701; 11944; 0000; 1705; 1672; 0000; 0000; 3758; 0000; 5305; 0000; 0120; 49.616104; 1516;  8.499609;  29.258858; -997.006592;  0.010642;  0.149055; -0.001367; -0.137575;  0.625193;  0.000000;  488.000000; -1680.000000;  -1212; -2415; 52956; 0000; 0000; -38059; -34508; 000000;  3.565704; -2.971961;  0.000000; 0000; 0000; 0000; 0000; 0000; 290717696; 000; 000; 000; 000; 255; 255; 255; 255; 156; 135; -0.004717;  346.101318; -55; 029; -23; -20.057739; 000; 000; 000;  0.000000; 0000; 0000; 0000; 0000; 0209; 0.000000; 0000; 0209;  0.000000;  0.000000;  0.000000; 0; 0;  1.500000;-0.042159; 0.056241;-0.021170;  0.000000;  0.000000;  0.000000; 0; -0.049650;  0.018849;  2.963096; -0.000045;  0.000042;  0.000024;  209; 920.043776; 0049; -2844.000000;  1081.000000;  169772.000000; 0209; 0.000000; 0.000000; 0.000000 ; 16681; 0.000000; 0.000000; 0.000000; 0.000000; 0.000000; 0.000000; 0.000000; 0.000000; 0.000000; 0.000000; 0.000000; 0.000000; 0000; 0000; -0.982897; -0.176608; 0.052179; 0.177343; -0.984101; 0.009762; 0.049626; 0.018849; 0.998590; 0.000000; 0.000000; 0.000000; 0; 0.000000; 0.000000; 0.000000; 0.000000; -1; 88; 72; 1; 37; 24; 0; 73; 20; 0; 119; 24; 0; 158; 2; 0; 9; 56; 0; 51; 54; 0; 85; 54; 0; 119; 54; 0; 149; 54; 0; 17; 84; 0; 51; 90; 0; 85; 90; 0; 119; 90; 0; 149; 90; 0; 7; 115; 1; 38; 109; 0; 85; 119; 1; 118; 118; 1; 144; 119; 0; 0; 0; 0; 0; 0; 0; 0; 0; 0; 0; 0; 0; 0; 0; 0; 0; 0; 0; 0; 0; 0; 0; 0; 0; 0; 0; 0; 0; 0; 0; 0; 0; 0; 0; 0; 0; 0; 0; 0; 0; 0; 0; 0; 0; 0; 0; 0; 0; 0; 0; 0; 0; 0; 0; 0.000000; 0.000000; 0.000000; 0.000000; 0.000000; 0.000000; 0.000000; 0.000000; 0.000000; 0.000000; 0.000000; 0.000000; 0.000000; 0.000000; 0.000000; 0.000000; 0.000000; 0.000000; 0.000000; 0.000000; 0.000000; 0.000000; 0.000000; 0.000000; 0.000000; 0.000000; 4959; 0
0; 2412380180;920.057135; 2064; 1992; 3064; 1734; 1461; 1654; 1955; 0703; 11944; 0000; 1705; 1671; 0772; 2094; 0000; 0000; 5442; 0000; 0120; 49.615746; 1514;  8.622320;  27.528893; -995.473145; -0.041547;  0.040928;  0.041308; -0.137605;  0.625215;  0.000000;  496.000000; -1584.000000;  -1212; -2415; 52956; 0000; 0000; -38059; -34508; 000000;  3.565704; -2.971961;  0.000000; 0000; 0000; 0000; 0000; 0000; 290717696; 000; 000; 000; 000; 255; 255; 255; 255; 156; 135; -0.004717;  346.101318; -55; 029; -23; -20.057739; 000; 000; 000;  0.000000; 0000; 0000; 0000; 0000; 0209; 0.000000; 0000; 0209;  0.000000;  0.000000;  0.000000; 0; 0;  1.500000;-0.042159; 0.056241;-0.021170;  0.000000;  0.000000;  0.000000; 0; -0.049650;  0.018849;  2.963096; -0.000045;  0.000042;  0.000024;  209; 920.043776; 0049; -2844.000000;  1082.000000;  169772.000000; 0209; 0.000000; 0.000000; 0.000000 ; 16681; 0.000000; 0.000000; 0.000000; 0.000000; 0.000000; 0.000000; 0.000000; 0.000000; 0.000000; 0.000000; 0.000000; 0.000000; 0000; 0000; -0.982896; -0.176611; 0.052189; 0.177347; -0.984100; 0.009773; 0.049634; 0.018861; 0.998589; 0.000000; 0.000000; 0.000000; 0; 0.000000; 0.000000; 0.000000; 0.000000; -1; 88; 72; 1; 37; 24; 0; 73; 20; 0; 119; 24; 0; 158; 2; 0; 9; 56; 0; 51; 54; 0; 85; 54; 0; 119; 54; 0; 149; 54; 0; 17; 84; 0; 51; 90; 0; 85; 90; 0; 119; 90; 0; 149; 90; 0; 7; 115; 1; 38; 109; 0; 85; 119; 1; 118; 118; 1; 144; 119; 0; 0; 0; 0; 0; 0; 0; 0; 0; 0; 0; 0; 0; 0; 0; 0; 0; 0; 0; 0; 0; 0; 0; 0; 0; 0; 0; 0; 0; 0; 0; 0; 0; 0; 0; 0; 0; 0; 0; 0; 0; 0; 0; 0; 0; 0; 0; 0; 0; 0; 0; 0; 0; 0; 0; 0.000000; 0.000000; 0.000000; 0.000000; 0.000000; 0.000000; 0.000000; 0.000000; 0.000000; 0.000000; 0.000000; 0.000000; 0.000000; 0.000000; 0.000000; 0.000000; 0.000000; 0.000000; 0.000000; 0.000000; 0.000000; 0.000000; 0.000000; 0.000000; 0.000000; 0.000000; 4957; 0
0; 2412380180;920.062125; 2064; 1992; 3064; 1733; 1460; 1655; 1953; 0699; 11944; 0000; 1705; 1671; 2214; 2334; 0001; 0000; 5577; 0000; 0120; 49.615387; 1514;  8.683308;  28.040138; -994.710938; -0.157368;  0.345067;  0.044717; -0.137632;  0.625238;  0.000000;  499.000000; -1614.000000;  -1212; -2415; 52956; 0000; 0000; -38059; -34508; 000000;  3.565704; -2.971961;  0.000000; 0000; 0000; 0000; 0000; 0000; 290717696; 000; 000; 000; 000; 255; 255; 255; 255; 156; 135; -0.004717;  346.101318; -55; 029; -23; -20.057739; 000; 000; 000;  0.000000; 0000; 0000; 0000; 0000; 0209; 0.000000; 0000; 0209;  0.000000;  0.000000;  0.000000; 0; 0;  1.500000;-0.042159; 0.056241;-0.021170;  0.000000;  0.000000;  0.000000; 0; -0.049650;  0.018849;  2.963096;  0.000011;  0.000034;  0.000003;  209; 920.043776; 0049; -2843.000000;  1082.000000;  169771.000000; 0209; 0.000000; 0.000000; 0.000000 ; 16681; 0.000000; 0.000000; 0.000000; 0.000000; 0.000000; 0.000000; 0.000000; 0.000000; 0.000000; 0.000000; 0.000000; 0.000000; 0000; 0000; -0.982897; -0.176615; 0.052171; 0.177350; -0.984099; 0.009776; 0.049615; 0.018862; 0.998590; 0.000000; 0.000000; 0.000000; 0; 0.000000; 0.000000; 0.000000; 0.000000; -1; 88; 72; 1; 37; 24; 0; 73; 20; 0; 119; 24; 0; 158; 2; 0; 9; 56; 0; 51; 54; 0; 85; 54; 0; 119; 54; 0; 149; 54; 0; 17; 84; 0; 51; 90; 0; 85; 90; 0; 119; 90; 0; 149; 90; 0; 7; 115; 1; 38; 109; 0; 85; 119; 1; 118; 118; 1; 144; 119; 0; 0; 0; 0; 0; 0; 0; 0; 0; 0; 0; 0; 0; 0; 0; 0; 0; 0; 0; 0; 0; 0; 0; 0; 0; 0; 0; 0; 0; 0; 0; 0; 0; 0; 0; 0; 0; 0; 0; 0; 0; 0; 0; 0; 0; 0; 0; 0; 0; 0; 0; 0; 0; 0; 0; 0.000000; 0.000000; 0.000000; 0.000000; 0.000000; 0.000000; 0.000000; 0.000000; 0.000000; 0.000000; 0.000000; 0.000000; 0.000000; 0.000000; 0.000000; 0.000000; 0.000000; 0.000000; 0.000000; 0.000000; 0.000000; 0.000000; 0.000000; 0.000000; 0.000000; 0.000000; 4949; 0
0; 2412380180;920.067121; 2064; 1992; 3064; 1733; 1461; 1654; 1951; 0701; 11944; 0000; 1705; 1672; 0000; 0000; 3758; 0000; 5714; 0000; 0120; 49.615028; 1514;  8.669622;  27.540985; -995.462158; -0.082904; -0.041307;  0.023279; -0.137662;  0.625260;  0.000000;  498.000000; -1584.000000;  -1212; -2415; 52956; 0000; 0000; -38059; -34508; 000000;  3.565704; -2.971961;  0.000000; 0000; 0000; 0000; 0000; 0000; 290717696; 000; 000; 000; 000; 255; 255; 255; 255; 156; 135; -0.004717;  346.101318; -55; 029; -23; -20.057739; 000; 000; 000;  0.000000; 0000; 0000; 0000; 0000; 0209; 0.000000; 0000; 0209;  0.000000;  0.000000;  0.000000; 0; 0;  1.500000;-0.042159; 0.056241;-0.021170;  0.000000;  0.000000;  0.000000; 0; -0.049654;  0.018885;  2.963081;  0.000011;  0.000034;  0.000003;  209; 920.060416; 0049; -2844.000000;  1082.000000;  169771.000000; 0209; 0.000000; 0.000000; 0.000000 ; 16682; 0.000000; 0.000000; 0.000000; 0.000000; 0.000000; 0.000000; 0.000000; 0.000000; 0.000000; 0.000000; 0.000000; 0.000000; 0000; 0000; -0.982895; -0.176619; 0.052188; 0.177355; -0.984098; 0.009782; 0.049630; 0.018870; 0.998589; 0.000000; 0.000000; 0.000000; 0; 0.000000; 0.000000; 0.000000; 0.000000; -1; 88; 72; 1; 37; 24; 0; 73; 20; 0; 119; 24; 0; 158; 2; 0; 9; 56; 0; 51; 54; 0; 85; 54; 0; 119; 54; 0; 149; 54; 0; 17; 84; 0; 51; 90; 0; 85; 90; 0; 119; 90; 0; 149; 90; 0; 7; 115; 1; 38; 109; 0; 85; 119; 1; 118; 118; 1; 144; 119; 0; 0; 0; 0; 0; 0; 0; 0; 0; 0; 0; 0; 0; 0; 0; 0; 0; 0; 0; 0; 0; 0; 0; 0; 0; 0; 0; 0; 0; 0; 0; 0; 0; 0; 0; 0; 0; 0; 0; 0; 0; 0; 0; 0; 0; 0; 0; 0; 0; 0; 0; 0; 0; 0; 0; 0.000000; 0.000000; 0.000000; 0.000000; 0.000000; 0.000000; 0.000000; 0.000000; 0.000000; 0.000000; 0.000000; 0.000000; 0.000000; 0.000000; 0.000000; 0.000000; 0.000000; 0.000000; 0.000000; 0.000000; 0.000000; 0.000000; 0.000000; 0.000000; 0.000000; 0.000000; 4961; 0
