VERSION 19b
Control_state [-]; ARDrone_state [-]; Time [s];     AccX_raw [LSB]; AccY_raw [LSB]; AccZ_raw [LSB];     GyroX_raw [LSB]; GyroY_raw [LSB]; GyroZ_raw [LSB]; GyroX_110_raw [LSB]; GyroY_110_raw [LSB];Battery_Voltage_raw [mV];     Alim_3V3 [LSB]; vrefEpson [LSB]; vrefIDG [LSB]; us_debut_echo [LSB]; us_fin_echo [LSB]; us_association_echo; us_distance_echo [LSB];     us_courbe_temps [LSB]; us_courbe_valeur [LSB]; us_courbe_ref [LSB];    Accs_temperature [K]; Gyro_temperature [LSB]; AccX_phys_filt [mg]; AccY_phys_filt [mg]; AccZ_phys_filt [mg];     GyroX_phys_filt [deg/s]; GyroY_phys_filt [deg/s]; GyroZ_phys_filt [deg/s];    GyroX_offset [deg/s]; GyroY_offset [deg/s]; GyroZ_offset [deg/s];     Theta_acc [mdeg]; Phi_acc [mdeg];    Theta_ref_embedded [mdeg]; Phi_ref_embedded [mdeg]; Psi_ref_embedded [mdeg]; Theta_ref_int [mdeg]; Phi_ref_int [mdeg];     Pitch_ref_embedded [mdeg]; Roll_ref_embedded [mdeg]; Yaw_ref_embedded [mdeg/s];     Theta_trim_embedded [mdeg]; Phi_trim_embedded [mdeg]; Yaw_trim_embedded [mdeg/s];     Pitch_rc_embedded [-]; Roll_rc_embedded [-]; Yaw_rc_embedded [-]; Gaz_rc_embedded [-]; Ag_rc_embedded [-]; User_Input [-];     PWM1 [PWM]; PWM2 [PWM]; PWM3 [PWM]; PWM4 [PWM];    SAT_PWM1 [PWM]; SAT_PWM2 [PWM]; SAT_PWM3 [PWM]; SAT_PWM4 [PWM];    Gaz_feed_forward [PWM]; Gaz_altitude [PWM]; Altitude_integral [mm/s]; Vz_Ref [mm/s] ;    u_pitch [PWM]; u_roll [PWM]; u_yaw [PWM]; yaw_u_I [PWM];    u_pitch_planif [PWM]; u_roll_planif [PWM]; u_yaw_planif [PWM]; u_gaz_planif [PWM];    Current_motor1 [mA]; Current_motor2 [mA]; Current_motor3 [mA]; Current_motor4 [mA];    Altitude_vision [mm]; Altitude_vz [mm/s]; Altitude_ref_embedded [mm]; Altitude_raw [mm];     Vision_tx_raw [-]; Vision_ty_raw [-]; Vision_tz_raw [-];   Vision_State [-]; Vision_defined [-];    Vision_phi_trim[rad]; Vision_phi_ref_prop[rad]; Vision_theta_trim[rad]; Vision_theta_ref_prop[rad];    Vx_body [mm/s]; Vy_body [mm/s]; Vz_body [mm/s];    New_raw_picture [-]; T_capture; F_capture; P_capture; delta_Phi; delta_Theta; delta_Psi; Alt_capture [-]; time_capture [s];	Demo_vbat [-]; Demo_theta [mdeg]; Demo_phi [mdeg]; Demo_psi [mdeg];  Demo_altitude [mm];  Demo_vx [mm/s]; Demo_vy [mm/s]; Demo_vz [mm/s];Demo_num_frames [-];    Demo_detect_rot_m11 [-]; Demo_detect_rot_m12 [-]; Demo_detect_rot_m13 [-]; Demo_detect_rot_m21 [-]; Demo_detect_rot_m22 [-]; Demo_detect_rot_m23 [-];    Demo_detect_rot_m31 [-]; Demo_detect_rot_m32 [-]; Demo_detect_rot_m33 [-]; Demo_detect_trans_v1 [-]; Demo_detect_trans_v2 [-]; Demo_detect_trans_v3 [-]; 	Demo_detect_tag_index [-]; Demo_camera_type [-]; Demo_drone_camera_rot_m11 [-]; Demo_drone_camera_rot_m12 [-]; Demo_drone_camera_rot_m13 [-];    Demo_drone_camera_rot_m21 [-]; Demo_drone_camera_rot_m22 [-]; Demo_drone_camera_rot_m23 [-]; Demo_drone_camera_rot_m31 [-]; Demo_drone_camera_rot_m32 [-];    Demo_drone_camera_rot_m33 [-]; Demo_drone_camera_trans_x [-]; Demo_drone_camera_trans_y [-]; Demo_drone_camera_trans_z [-];		nd_iphone_enable [-]; nd_iphone_phi [-]; nd_iphone_theta [-]; nd_iphone_gaz [-]; nd_iphone_yaw [-];Locked_0; X_0; Y_0; Locked_1; X_1; Y_1; Locked_2; X_2; Y_2; Locked_3; X_3; Y_3; Locked_4; X_4; Y_4; Locked_5; X_5; Y_5; Locked_6; X_6; Y_6; Locked_7; X_7; Y_7; Locked_8; X_8; Y_8; Locked_9; X_9; Y_9; Locked_10; X_10; Y_10; Locked_11; X_11; Y_11; Locked_12; X_12; Y_12; Locked_13; X_13; Y_13; Locked_14; X_14; Y_14; Locked_15; X_15; Y_15; Locked_16; X_16; Y_16; Locked_17; X_17; Y_17; Locked_18; X_18; Y_18; Locked_19; X_19; Y_19; Locked_20; X_20; Y_20; Locked_21; X_21; Y_21; Locked_22; X_22; Y_22; Locked_23; X_23; Y_23; Locked_24; X_24; Y_24; Locked_25; X_25; Y_25; Locked_26; X_26; Y_26; Locked_27; X_27; Y_27; Locked_28; X_28; Y_28; Locked_29; X_29; Y_29; Nb_detected; Type_0; Xd_0; Yd_0; W_0; H_0; D_0; Type_1; Xd_1; Yd_1; W_1; H_1; D_1; Type_2; Xd_2; Yd_2; W_2; H_2; D_2; Type_3; Xd_3; Yd_3; W_3; H_3; D_3; Perf_szo [ms]; Perf_corners [ms]; Perf_compute [ms]; Perf_tracking [ms]; Perf_trans [ms]; Perf_update [ms]; Perf_Custom_0; Perf_Custom_1; Perf_Custom_2; Perf_Custom_3; Perf_Custom_4; Perf_Custom_5; Perf_Custom_6; Perf_Custom_7; Perf_Custom_8; Perf_Custom_9; Perf_Custom_10; Perf_Custom_11; Perf_Custom_12; Perf_Custom_13; Perf_Custom_14; Perf_Custom_15; Perf_Custom_16; Perf_Custom_17; Perf_Custom_18; Perf_Custom_19; Watchdog Control [-];     flag_new_picture [-];
131072; 1333788692;677.284442; 2060; 1980; 3068; 1671; 1691; 1655; 1670; 1760; 11231; 0000; 1706; 1672; 0000; 0000; 3758; 0000; 14417; 0000; 0120; 46.197533; 1500;  4.094404;  38.632431; -998.797852; -0.077182;  0.228301;  0.084437; -1.040869;  5.129399;  0.000000;  234.000000; -2215.000000;  0000; 0000; -9650; 0000; 0000; -02328; -02999; 000000;  0.023262; -2.304895;  0.000000; 0000; 0000; 0000; 0000; 0000; 290717696; 000; 000; 000; 000; 255; 255; 255; 255; 072; 072;  0.000000; -61.975121; 003; 003; -05;  6.468399; 000; 000; 000;  0.000000; 0000; 0000; 0000; 0000; 0211; 0.000000; 0000; 0211;  0.000000;  0.000000;  0.000000; 0; 0;  0.000000; 0.000000; 0.000000; 0.000000;  0.000000;  0.000000;  0.000000; 0;  0.004832;  0.001058; -0.341030; -0.000000;  0.000043;  0.000025;  211; 677.268667; 0045;  277.000000;  59.000000; -19540.000000; 0211; 0.000000; 0.000000; 0.000000 ; 12215; 0.000000; 0.000000; 0.000000; 0.000000; 0.000000; 0.000000; 0.000000; 0.000000; 0.000000; 0.000000; 0.000000; 0.000000; 0000; 0000; 0.942395; 0.334474; 0.004221; -0.334466; 0.942404; -0.002603; -0.004849; 0.001041; 0.999988; 0.000000; 0.000000; 0.000000; 0; 0.000000; 0.000000; 0.000000; 0.000000; -1; 88; 72; 0; 0; 0; 0; 0; 0; 0; 0; 0; 0; 0; 0; 0; 0; 0; 0; 0; 0; 0; 0; 0; 0; 0; 0; 0; 0; 0; 0; 0; 0; 0; 0; 0; 0; 0; 0; 0; 0; 0; 0; 0; 0; 0; 0; 0; 0; 0; 0; 0; 0; 0; 0; 0; 0; 0; 0; 0; 0; 0; 0; 0; 0; 0; 0; 0; 0; 0; 0; 0; 0; 0; 0; 0; 0; 0; 0; 0; 0; 0; 0; 0; 0; 0; 0; 0; 0; 0; 0; 0; 0; 0; 0; 0; 0; 0; 0; 0; 0; 0; 0; 0; 0; 0; 0; 0; 0; 0; 0; 0; 0; 0; 0; 0.000000; 0.000000; 0.000000; 0.000000; 0.000000; 0.000000; 0.000000; 0.000000; 0.000000; 0.000000; 0.000000; 0.000000; 0.000000; 0.000000; 0.000000; 0.000000; 0.000000; 0.000000; 0.000000; 0.000000; 0.000000; 0.000000; 0.000000; 0.000000; 0.000000; 0.000000; 5355; 0
131072; 1333788692;677.289039; 2060; 1984; 3068; 1671; 1692; 1655; 1666; 1764; 11231; 0000; 1706; 1673; 0000; 0000; 3758; 0000; 14553; 0000; 0120; 46.198479; 1501;  5.017495;  37.858330; -998.843750; -0.146640;  0.186103;  0.084437; -1.040876;  5.129400;  0.000000;  287.000000; -2170.000000;  0000; 0000; -9650; 0000; 0000; -02328; -02999; 000000;  0.023262; -2.304895;  0.000000; 0000; 0000; 0000; 0000; 0000; 290717696; 000; 000; 000; 000; 255; 255; 255; 255; 072; 072;  0.000000; -61.975121; 003; 003; -05;  6.468399; 000; 000; 000;  0.000000; 0000; 0000; 0000; 0000; 0211; 0.000000; 0000; 0211;  0.000000;  0.000000;  0.000000; 0; 0;  0.000000; 0.000000; 0.000000; 0.000000;  0.000000;  0.000000;  0.000000; 0;  0.004849;  0.001041; -0.341043; -0.000003;  0.000018;  0.000025;  211; 677.285328; 0045;  278.000000;  59.000000; -19540.000000; 0211; 0.000000; 0.000000; 0.000000 ; 12215; 0.000000; 0.000000; 0.000000; 0.000000; 0.000000; 0.000000; 0.000000; 0.000000; 0.000000; 0.000000; 0.000000; 0.000000; 0000; 0000; 0.942394; 0.334477; 0.004239; -0.334469; 0.942403; -0.002599; -0.004864; 0.001032; 0.999988; 0.000000; 0.000000; 0.000000; 0; 0.000000; 0.000000; 0.000000; 0.000000; -1; 88; 72; 0; 0; 0; 0; 0; 0; 0; 0; 0; 0; 0; 0; 0; 0; 0; 0; 0; 0; 0; 0; 0; 0; 0; 0; 0; 0; 0; 0; 0; 0; 0; 0; 0; 0; 0; 0; 0; 0; 0; 0; 0; 0; 0; 0; 0; 0; 0; 0; 0; 0; 0; 0; 0; 0; 0; 0; 0; 0; 0; 0; 0; 0; 0; 0; 0; 0; 0; 0; 0; 0; 0; 0; 0; 0; 0; 0; 0; 0; 0; 0; 0; 0; 0; 0; 0; 0; 0; 0; 0; 0; 0; 0; 0; 0; 0; 0; 0; 0; 0; 0; 0; 0; 0; 0; 0; 0; 0; 0; 0; 0; 0; 0; 0.000000; 0.000000; 0.000000; 0.000000; 0.000000; 0.000000; 0.000000; 0.000000; 0.000000; 0.000000; 0.000000; 0.000000; 0.000000; 0.000000; 0.000000; 0.000000; 0.000000; 0.000000; 0.000000; 0.000000; 0.000000; 0.000000; 0.000000; 0.000000; 0.000000; 0.000000; 4556; 0
131072; 1333788692;677.294055; 2056; 1980; 3068; 1671; 1691; 1655; 1663; 1761; 11231; 0000; 1706; 1672; 0000; 0000; 3758; 0000; 14689; 0000; 0120; 46.199425; 1501;  3.105131;  39.758423; -998.770264; -0.197806;  0.348550;  0.084437; -1.040873;  5.129412;  0.000000;  177.000000; -2279.000000;  0000; 0000; -9650; 0000; 0000; -02328; -02999; 000000;  0.023262; -2.304895;  0.000000; 0000; 0000; 0000; 0000; 0000; 290717696; 000; 000; 000; 000; 255; 255; 255; 255; 072; 072;  0.000000; -61.975121; 003; 003; -05;  6.468399; 000; 000; 000;  0.000000; 0000; 0000; 0000; 0000; 0211; 0.000000; 0000; 0211;  0.000000;  0.000000;  0.000000; 0; 0;  0.000000; 0.000000; 0.000000; 0.000000;  0.000000;  0.000000;  0.000000; 0;  0.004849;  0.001041; -0.341043; -0.000003;  0.000018;  0.000025;  211; 677.285328; 0045;  280.000000;  58.000000; -19540.000000; 0211; 0.000000; 0.000000; 0.000000 ; 12215; 0.000000; 0.000000; 0.000000; 0.000000; 0.000000; 0.000000; 0.000000; 0.000000; 0.000000; 0.000000; 0.000000; 0.000000; 0000; 0000; 0.942393; 0.334480; 0.004268; -0.334472; 0.942402; -0.002590; -0.004888; 0.001013; 0.999988; 0.000000; 0.000000; 0.000000; 0; 0.000000; 0.000000; 0.000000; 0.000000; -1; 88; 72; 0; 0; 0; 0; 0; 0; 0; 0; 0; 0; 0; 0; 0; 0; 0; 0; 0; 0; 0; 0; 0; 0; 0; 0; 0; 0; 0; 0; 0; 0; 0; 0; 0; 0; 0; 0; 0; 0; 0; 0; 0; 0; 0; 0; 0; 0; 0; 0; 0; 0; 0; 0; 0; 0; 0; 0; 0; 0; 0; 0; 0; 0; 0; 0; 0; 0; 0; 0; 0; 0; 0; 0; 0; 0; 0; 0; 0; 0; 0; 0; 0; 0; 0; 0; 0; 0; 0; 0; 0; 0; 0; 0; 0; 0; 0; 0; 0; 0; 0; 0; 0; 0; 0; 0; 0; 0; 0; 0; 0; 0; 0; 0; 0.000000; 0.000000; 0.000000; 0.000000; 0.000000; 0.000000; 0.000000; 0.000000; 0.000000; 0.000000; 0.000000; 0.000000; 0.000000; 0.000000; 0.000000; 0.000000; 0.000000; 0.000000; 0.000000; 0.000000; 0.000000; 0.000000; 0.000000; 0.000000; 0.000000; 0.000000; 4975; 0
131072; 1333788692;677.299026; 2056; 1980; 3068; 1671; 1692; 1655; 1667; 1764; 11231; 0000; 1706; 1672; 0000; 0000; 3758; 0000; 14827; 0000; 0120; 46.200371; 1502;  1.902481;  38.278717; -998.866699; -0.154255;  0.221293;  0.084437; -1.040878;  5.129430;  0.000000;  109.000000; -2194.000000;  0000; 0000; -9650; 0000; 0000; -02328; -02999; 000000;  0.023262; -2.304895;  0.000000; 0000; 0000; 0000; 0000; 0000; 290717696; 000; 000; 000; 000; 255; 255; 255; 255; 072; 072;  0.000000; -61.975121; 003; 003; -05;  6.468399; 000; 000; 000;  0.000000; 0000; 0000; 0000; 0000; 0211; 0.000000; 0000; 0211;  0.000000;  0.000000;  0.000000; 0; 0;  0.000000; 0.000000; 0.000000; 0.000000;  0.000000;  0.000000;  0.000000; 0;  0.004849;  0.001041; -0.341043; -0.000003;  0.000018;  0.000025;  211; 677.285328; 0045;  280.000000;  57.000000; -19540.000000; 0211; 0.000000; 0.000000; 0.000000 ; 12215; 0.000000; 0.000000; 0.000000; 0.000000; 0.000000; 0.000000; 0.000000; 0.000000; 0.000000; 0.000000; 0.000000; 0.000000; 0000; 0000; 0.942392; 0.334483; 0.004281; -0.334474; 0.942401; -0.002583; -0.004898; 0.001002; 0.999987; 0.000000; 0.000000; 0.000000; 0; 0.000000; 0.000000; 0.000000; 0.000000; -1; 88; 72; 0; 0; 0; 0; 0; 0; 0; 0; 0; 0; 0; 0; 0; 0; 0; 0; 0; 0; 0; 0; 0; 0; 0; 0; 0; 0; 0; 0; 0; 0; 0; 0; 0; 0; 0; 0; 0; 0; 0; 0; 0; 0; 0; 0; 0; 0; 0; 0; 0; 0; 0; 0; 0; 0; 0; 0; 0; 0; 0; 0; 0; 0; 0; 0; 0; 0; 0; 0; 0; 0; 0; 0; 0; 0; 0; 0; 0; 0; 0; 0; 0; 0; 0; 0; 0; 0; 0; 0; 0; 0; 0; 0; 0; 0; 0; 0; 0; 0; 0; 0; 0; 0; 0; 0; 0; 0; 0; 0; 0; 0; 0; 0; 0.000000; 0.000000; 0.000000; 0.000000; 0.000000; 0.000000; 0.000000; 0.000000; 0.000000; 0.000000; 0.000000; 0.000000; 0.000000; 0.000000; 0.000000; 0.000000; 0.000000; 0.000000; 0.000000; 0.000000; 0.000000; 0.000000; 0.000000; 0.000000; 0.000000; 0.000000; 4932; 0
131072; 1333788692;677.304408; 2056; 1984; 3068; 1671; 1692; 1655; 1666; 1762; 11231; 0000; 1706; 1672; 0000; 0000; 3758; 0000; 14962; 0000; 0120; 46.201309; 1501;  0.697510;  38.333504; -998.891602; -0.259024;  0.144011;  0.084437; -1.040883;  5.129455;  0.000000;  39.000000; -2197.000000;  0000; 0000; -9650; 0000; 0000; -02328; -02999; 000000;  0.023262; -2.304895;  0.000000; 0000; 0000; 0000; 0000; 0000; 290717696; 000; 000; 000; 000; 255; 255; 255; 255; 072; 072;  0.000000; -61.975121; 003; 003; -05;  6.468399; 000; 000; 000;  0.000000; 0000; 0000; 0000; 0000; 0211; 0.000000; 0000; 0211;  0.000000;  0.000000;  0.000000; 0; 0;  0.000000; 0.000000; 0.000000; 0.000000;  0.000000;  0.000000;  0.000000; 0;  0.004849;  0.001041; -0.341043; -0.000041;  0.000073;  0.000025;  211; 677.285328; 0045;  280.000000;  56.000000; -19541.000000; 0211; 0.000000; 0.000000; 0.000000 ; 12215; 0.000000; 0.000000; 0.000000; 0.000000; 0.000000; 0.000000; 0.000000; 0.000000; 0.000000; 0.000000; 0.000000; 0.000000; 0000; 0000; 0.942391; 0.334486; 0.004287; -0.334477; 0.942400; -0.002564; -0.004898; 0.000982; 0.999988; 0.000000; 0.000000; 0.000000; 0; 0.000000; 0.000000; 0.000000; 0.000000; -1; 88; 72; 0; 0; 0; 0; 0; 0; 0; 0; 0; 0; 0; 0; 0; 0; 0; 0; 0; 0; 0; 0; 0; 0; 0; 0; 0; 0; 0; 0; 0; 0; 0; 0; 0; 0; 0; 0; 0; 0; 0; 0; 0; 0; 0; 0; 0; 0; 0; 0; 0; 0; 0; 0; 0; 0; 0; 0; 0; 0; 0; 0; 0; 0; 0; 0; 0; 0; 0; 0; 0; 0; 0; 0; 0; 0; 0; 0; 0; 0; 0; 0; 0; 0; 0; 0; 0; 0; 0; 0; 0; 0; 0; 0; 0; 0; 0; 0; 0; 0; 0; 0; 0; 0; 0; 0; 0; 0; 0; 0; 0; 0; 0; 0; 0.000000; 0.000000; 0.000000; 0.000000; 0.000000; 0.000000; 0.000000; 0.000000; 0.000000; 0.000000; 0.000000; 0.000000; 0.000000; 0.000000; 0.000000; 0.000000; 0.000000; 0.000000; 0.000000; 0.000000; 0.000000; 0.000000; 0.000000; 0.000000; 0.000000; 0.000000; 5339; 0
131072; 260046868;677.309054; 2056; 1980; 3068; 1671; 1692; 1655; 1666; 1764; 11231; 0000; 1706; 1672; 0000; 0000; 3758; 0000; 15098; 0000; 0120; 46.200684; 1500; -0.108009;  39.624901; -998.824951; -0.163236;  0.149211;  0.084437; -1.040881;  5.129484;  0.000000; -6.000000; -2271.000000;  0000; 0000; -9650; 0000; 0000; -02328; -02999; 000000;  0.023262; -2.304895;  0.000000; 0000; 0000; 0000; 0000; 0000; 290717696; 000; 000; 000; 000; 255; 255; 255; 255; 072; 072;  0.000000; -61.975121; 003; 003; -05;  6.468399; 000; 000; 000;  0.000000; 0000; 0000; 0000; 0000; 0211; 0.000000; 0000; 0211;  0.000000;  0.000000;  0.000000; 0; 0;  0.000000; 0.000000; 0.000000; 0.000000;  0.000000;  0.000000;  0.000000; 0;  0.004898;  0.001002; -0.341052; -0.000041;  0.000073;  0.000025;  211; 677.301893; 0045;  280.000000;  55.000000; -19541.000000; 0211; 0.000000; 0.000000; 0.000000 ; 12215; 0.000000; 0.000000; 0.000000; 0.000000; 0.000000; 0.000000; 0.000000; 0.000000; 0.000000; 0.000000; 0.000000; 0.000000; 0000; 0000; 0.942390; 0.334489; 0.004290; -0.334480; 0.942399; -0.002549; -0.004896; 0.000967; 0.999988; 0.000000; 0.000000; 0.000000; 0; 0.000000; 0.000000; 0.000000; 0.000000; -1; 88; 72; 0; 0; 0; 0; 0; 0; 0; 0; 0; 0; 0; 0; 0; 0; 0; 0; 0; 0; 0; 0; 0; 0; 0; 0; 0; 0; 0; 0; 0; 0; 0; 0; 0; 0; 0; 0; 0; 0; 0; 0; 0; 0; 0; 0; 0; 0; 0; 0; 0; 0; 0; 0; 0; 0; 0; 0; 0; 0; 0; 0; 0; 0; 0; 0; 0; 0; 0; 0; 0; 0; 0; 0; 0; 0; 0; 0; 0; 0; 0; 0; 0; 0; 0; 0; 0; 0; 0; 0; 0; 0; 0; 0; 0; 0; 0; 0; 0; 0; 0; 0; 0; 0; 0; 0; 0; 0; 0; 0; 0; 0; 0; 0; 0.000000; 0.000000; 0.000000; 0.000000; 0.000000; 0.000000; 0.000000; 0.000000; 0.000000; 0.000000; 0.000000; 0.000000; 0.000000; 0.000000; 0.000000; 0.000000; 0.000000; 0.000000; 0.000000; 0.000000; 0.000000; 0.000000; 0.000000; 0.000000; 0.000000; 0.000000; 4605; 0
131072; 260046868;677.314027; 2056; 1980; 3068; 1672; 1692; 1655; 1671; 1768; 11231; 0000; 1706; 1672; 0778; 3001; 0000; 0000; 15233; 0000; 0120; 46.200058; 1502;  0.515296;  37.986473; -998.906982; -0.005419; -0.061082;  0.084437; -1.040888;  5.129510;  0.000000;  29.000000; -2177.000000;  0000; 0000; -9650; 0000; 0000; -02328; -02999; 000000;  0.023262; -2.304895;  0.000000; 0000; 0000; 0000; 0000; 0000; 290717696; 000; 000; 000; 000; 255; 255; 255; 255; 072; 072;  0.000000; -61.975121; 003; 003; -05;  6.468399; 000; 000; 000;  0.000000; 0000; 0000; 0000; 0000; 0211; 0.000000; 0000; 0211;  0.000000;  0.000000;  0.000000; 0; 0;  0.000000; 0.000000; 0.000000; 0.000000;  0.000000;  0.000000;  0.000000; 0;  0.004898;  0.001002; -0.341052; -0.000041;  0.000073;  0.000025;  211; 677.301893; 0045;  279.000000;  55.000000; -19541.000000; 0211; 0.000000; 0.000000; 0.000000 ; 12216; 0.000000; 0.000000; 0.000000; 0.000000; 0.000000; 0.000000; 0.000000; 0.000000; 0.000000; 0.000000; 0.000000; 0.000000; 0000; 0000; 0.942389; 0.334491; 0.004271; -0.334483; 0.942398; -0.002545; -0.004877; 0.000970; 0.999988; 0.000000; 0.000000; 0.000000; 0; 0.000000; 0.000000; 0.000000; 0.000000; -1; 88; 72; 0; 0; 0; 0; 0; 0; 0; 0; 0; 0; 0; 0; 0; 0; 0; 0; 0; 0; 0; 0; 0; 0; 0; 0; 0; 0; 0; 0; 0; 0; 0; 0; 0; 0; 0; 0; 0; 0; 0; 0; 0; 0; 0; 0; 0; 0; 0; 0; 0; 0; 0; 0; 0; 0; 0; 0; 0; 0; 0; 0; 0; 0; 0; 0; 0; 0; 0; 0; 0; 0; 0; 0; 0; 0; 0; 0; 0; 0; 0; 0; 0; 0; 0; 0; 0; 0; 0; 0; 0; 0; 0; 0; 0; 0; 0; 0; 0; 0; 0; 0; 0; 0; 0; 0; 0; 0; 0; 0; 0; 0; 0; 0; 0.000000; 0.000000; 0.000000; 0.000000; 0.000000; 0.000000; 0.000000; 0.000000; 0.000000; 0.000000; 0.000000; 0.000000; 0.000000; 0.000000; 0.000000; 0.000000; 0.000000; 0.000000; 0.000000; 0.000000; 0.000000; 0.000000; 0.000000; 0.000000; 0.000000; 0.000000; 4931; 0
131072; 260046868;677.318994; 2056; 1980; 3068; 1672; 1692; 1655; 1666; 1766; 11231; 0000; 1706; 1672; 0000; 0000; 3758; 0000; 15369; 0000; 0120; 46.199432; 1502;  0.418694;  39.939194; -998.795166;  0.042181;  0.099740;  0.084437; -1.040884;  5.129536;  0.000000;  23.000000; -2289.000000;  0000; 0000; -9650; 0000; 0000; -02328; -02999; 000000;  0.023262; -2.304895;  0.000000; 0000; 0000; 0000; 0000; 0000; 290717696; 000; 000; 000; 000; 255; 255; 255; 255; 072; 072;  0.000000; -61.975121; 003; 003; -05;  6.468399; 000; 000; 000;  0.000000; 0000; 0000; 0000; 0000; 0211; 0.000000; 0000; 0211;  0.000000;  0.000000;  0.000000; 0; 0;  0.000000; 0.000000; 0.000000; 0.000000;  0.000000;  0.000000;  0.000000; 0;  0.004898;  0.001002; -0.341052; -0.000056;  0.000050;  0.000025;  211; 677.301893; 0045;  279.000000;  55.000000; -19541.000000; 0211; 0.000000; 0.000000; 0.000000 ; 12216; 0.000000; 0.000000; 0.000000; 0.000000; 0.000000; 0.000000; 0.000000; 0.000000; 0.000000; 0.000000; 0.000000; 0.000000; 0000; 0000; 0.942388; 0.334494; 0.004266; -0.334486; 0.942397; -0.002545; -0.004872; 0.000972; 0.999988; 0.000000; 0.000000; 0.000000; 0; 0.000000; 0.000000; 0.000000; 0.000000; -1; 88; 72; 0; 0; 0; 0; 0; 0; 0; 0; 0; 0; 0; 0; 0; 0; 0; 0; 0; 0; 0; 0; 0; 0; 0; 0; 0; 0; 0; 0; 0; 0; 0; 0; 0; 0; 0; 0; 0; 0; 0; 0; 0; 0; 0; 0; 0; 0; 0; 0; 0; 0; 0; 0; 0; 0; 0; 0; 0; 0; 0; 0; 0; 0; 0; 0; 0; 0; 0; 0; 0; 0; 0; 0; 0; 0; 0; 0; 0; 0; 0; 0; 0; 0; 0; 0; 0; 0; 0; 0; 0; 0; 0; 0; 0; 0; 0; 0; 0; 0; 0; 0; 0; 0; 0; 0; 0; 0; 0; 0; 0; 0; 0; 0; 0.000000; 0.000000; 0.000000; 0.000000; 0.000000; 0.000000; 0.000000; 0.000000; 0.000000; 0.000000; 0.000000; 0.000000; 0.000000; 0.000000; 0.000000; 0.000000; 0.000000; 0.000000; 0.000000; 0.000000; 0.000000; 0.000000; 0.000000; 0.000000; 0.000000; 0.000000; 4929; 0
131072; 260046868;677.323980; 2056; 1980; 3068; 1671; 1691; 1655; 1667; 1762; 11231; 0000; 1706; 1673; 0000; 0000; 3758; 0000; 15505; 0000; 0120; 46.200378; 1502;  0.899114;  40.636383; -998.746826;  0.068026;  0.181130;  0.084437; -1.040877;  5.129559;  0.000000;  51.000000; -2329.000000;  0000; 0000; -9650; 0000; 0000; -02328; -02999; 000000;  0.023262; -2.304895;  0.000000; 0000; 0000; 0000; 0000; 0000; 290717696; 000; 000; 000; 000; 255; 255; 255; 255; 072; 072;  0.000000; -61.975121; 003; 003; -05;  6.468399; 000; 000; 000;  0.000000; 0000; 0000; 0000; 0000; 0211; 0.000000; 0000; 0211;  0.000000;  0.000000;  0.000000; 0; 0;  0.000000; 0.000000; 0.000000; 0.000000;  0.000000;  0.000000;  0.000000; 0;  0.004877;  0.000970; -0.341061; -0.000056;  0.000050;  0.000025;  211; 677.318503; 0045;  279.000000;  55.000000; -19541.000000; 0211; 0.000000; 0.000000; 0.000000 ; 12216; 0.000000; 0.000000; 0.000000; 0.000000; 0.000000; 0.000000; 0.000000; 0.000000; 0.000000; 0.000000; 0.000000; 0.000000; 0000; 0000; 0.942387; 0.334497; 0.004269; -0.334489; 0.942396; -0.002548; -0.004875; 0.000974; 0.999988; 0.000000; 0.000000; 0.000000; 0; 0.000000; 0.000000; 0.000000; 0.000000; -1; 88; 72; 0; 0; 0; 0; 0; 0; 0; 0; 0; 0; 0; 0; 0; 0; 0; 0; 0; 0; 0; 0; 0; 0; 0; 0; 0; 0; 0; 0; 0; 0; 0; 0; 0; 0; 0; 0; 0; 0; 0; 0; 0; 0; 0; 0; 0; 0; 0; 0; 0; 0; 0; 0; 0; 0; 0; 0; 0; 0; 0; 0; 0; 0; 0; 0; 0; 0; 0; 0; 0; 0; 0; 0; 0; 0; 0; 0; 0; 0; 0; 0; 0; 0; 0; 0; 0; 0; 0; 0; 0; 0; 0; 0; 0; 0; 0; 0; 0; 0; 0; 0; 0; 0; 0; 0; 0; 0; 0; 0; 0; 0; 0; 0; 0.000000; 0.000000; 0.000000; 0.000000; 0.000000; 0.000000; 0.000000; 0.000000; 0.000000; 0.000000; 0.000000; 0.000000; 0.000000; 0.000000; 0.000000; 0.000000; 0.000000; 0.000000; 0.000000; 0.000000; 0.000000; 0.000000; 0.000000; 0.000000; 0.000000; 0.000000; 4947; 0
131072; 260046868;677.328976; 2056; 1980; 3068; 1671; 1692; 1655; 1667; 1766; 11231; 0000; 1706; 1672; 0000; 0000; 3758; 0000; 15642; 0000; 0120; 46.199753; 1501;  0.679680;  39.481552; -998.817627;  0.054765;  0.159533;  0.084437; -1.040875;  5.129584;  0.000000;  38.000000; -2263.000000;  0000; 0000; -9650; 0000; 0000; -02328; -02999; 000000;  0.023262; -2.304895;  0.000000; 0000; 0000; 0000; 0000; 0000; 290717696; 000; 000; 000; 000; 255; 255; 255; 255; 072; 072;  0.000000; -61.975121; 003; 003; -05;  6.468399; 000; 000; 000;  0.000000; 0000; 0000; 0000; 0000; 0211; 0.000000; 0000; 0211;  0.000000;  0.000000;  0.000000; 0; 0;  0.000000; 0.000000; 0.000000; 0.000000;  0.000000;  0.000000;  0.000000; 0;  0.004877;  0.000970; -0.341061; -0.000056;  0.000050;  0.000025;  211; 677.318503; 0045;  279.000000;  56.000000; -19541.000000; 0211; 0.000000; 0.000000; 0.000000 ; 12216; 0.000000; 0.000000; 0.000000; 0.000000; 0.000000; 0.000000; 0.000000; 0.000000; 0.000000; 0.000000; 0.000000; 0.000000; 0000; 0000; 0.942386; 0.334500; 0.004268; -0.334492; 0.942395; -0.002553; -0.004876; 0.000978; 0.999988; 0.000000; 0.000000; 0.000000; 0; 0.000000; 0.000000; 0.000000; 0.000000; -1; 88; 72; 0; 0; 0; 0; 0; 0; 0; 0; 0; 0; 0; 0; 0; 0; 0; 0; 0; 0; 0; 0; 0; 0; 0; 0; 0; 0; 0; 0; 0; 0; 0; 0; 0; 0; 0; 0; 0; 0; 0; 0; 0; 0; 0; 0; 0; 0; 0; 0; 0; 0; 0; 0; 0; 0; 0; 0; 0; 0; 0; 0; 0; 0; 0; 0; 0; 0; 0; 0; 0; 0; 0; 0; 0; 0; 0; 0; 0; 0; 0; 0; 0; 0; 0; 0; 0; 0; 0; 0; 0; 0; 0; 0; 0; 0; 0; 0; 0; 0; 0; 0; 0; 0; 0; 0; 0; 0; 0; 0; 0; 0; 0; 0; 0.000000; 0.000000; 0.000000; 0.000000; 0.000000; 0.000000; 0.000000; 0.000000; 0.000000; 0.000000; 0.000000; 0.000000; 0.000000; 0.000000; 0.000000; 0.000000; 0.000000; 0.000000; 0.000000; 0.000000; 0.000000; 0.000000; 0.000000; 0.000000; 0.000000; 0.000000; 4958; 0
131072; 260046868;677.333953; 2056; 1980; 3068; 1670; 1692; 1655; 1662; 1766; 11231; 0000; 1706; 1672; 0000; 0000; 3758; 0000; 15778; 0000; 0120; 46.200691; 1500;  0.376132;  40.721298; -998.748535; -0.334386;  0.241272;  0.084437; -1.040868;  5.129611;  0.000000;  21.000000; -2334.000000;  0000; 0000; -9650; 0000; 0000; -02328; -02999; 000000;  0.023262; -2.304895;  0.000000; 0000; 0000; 0000; 0000; 0000; 290717696; 000; 000; 000; 000; 255; 255; 255; 255; 072; 072;  0.000000; -61.975121; 003; 003; -05;  6.468399; 000; 000; 000;  0.000000; 0000; 0000; 0000; 0000; 0211; 0.000000; 0000; 0211;  0.000000;  0.000000;  0.000000; 0; 0;  0.000000; 0.000000; 0.000000; 0.000000;  0.000000;  0.000000;  0.000000; 0;  0.004877;  0.000970; -0.341061; -0.000056;  0.000050;  0.000025;  211; 677.318503; 0045;  279.000000;  54.000000; -19542.000000; 0211; 0.000000; 0.000000; 0.000000 ; 12216; 0.000000; 0.000000; 0.000000; 0.000000; 0.000000; 0.000000; 0.000000; 0.000000; 0.000000; 0.000000; 0.000000; 0.000000; 0000; 0000; 0.942385; 0.334503; 0.004286; -0.334495; 0.942394; -0.002524; -0.004883; 0.000945; 0.999988; 0.000000; 0.000000; 0.000000; 0; 0.000000; 0.000000; 0.000000; 0.000000; -1; 88; 72; 0; 0; 0; 0; 0; 0; 0; 0; 0; 0; 0; 0; 0; 0; 0; 0; 0; 0; 0; 0; 0; 0; 0; 0; 0; 0; 0; 0; 0; 0; 0; 0; 0; 0; 0; 0; 0; 0; 0; 0; 0; 0; 0; 0; 0; 0; 0; 0; 0; 0; 0; 0; 0; 0; 0; 0; 0; 0; 0; 0; 0; 0; 0; 0; 0; 0; 0; 0; 0; 0; 0; 0; 0; 0; 0; 0; 0; 0; 0; 0; 0; 0; 0; 0; 0; 0; 0; 0; 0; 0; 0; 0; 0; 0; 0; 0; 0; 0; 0; 0; 0; 0; 0; 0; 0; 0; 0; 0; 0; 0; 0; 0; 0.000000; 0.000000; 0.000000; 0.000000; 0.000000; 0.000000; 0.000000; 0.000000; 0.000000; 0.000000; 0.000000; 0.000000; 0.000000; 0.000000; 0.000000; 0.000000; 0.000000; 0.000000; 0.000000; 0.000000; 0.000000; 0.000000; 0.000000; 0.000000; 0.000000; 0.000000; 4937; 0
131072; 260046868;677.339053; 2056; 1980; 3068; 1671; 1692; 1655; 1664; 1763; 11231; 0000; 1706; 1672; 0000; 0000; 3758; 0000; 15914; 0000; 0120; 46.201630; 1501;  0.533171;  39.870796; -998.797119; -0.333348;  0.124344;  0.084437; -1.040864;  5.129636;  0.000000;  30.000000; -2285.000000;  0000; 0000; -9650; 0000; 0000; -02328; -02999; 000000;  0.023262; -2.304895;  0.000000; 0000; 0000; 0000; 0000; 0000; 290717696; 000; 000; 000; 000; 255; 255; 255; 255; 072; 072;  0.000000; -61.975121; 003; 003; -05;  6.468399; 000; 000; 000;  0.000000; 0000; 0000; 0000; 0000; 0211; 0.000000; 0000; 0211;  0.000000;  0.000000;  0.000000; 0; 0;  0.000000; 0.000000; 0.000000; 0.000000;  0.000000;  0.000000;  0.000000; 0;  0.004883;  0.000945; -0.341073;  0.000012;  0.000028;  0.000025;  211; 677.335129; 0045;  279.000000;  52.000000; -19542.000000; 0211; 0.000000; 0.000000; 0.000000 ; 12216; 0.000000; 0.000000; 0.000000; 0.000000; 0.000000; 0.000000; 0.000000; 0.000000; 0.000000; 0.000000; 0.000000; 0.000000; 0000; 0000; 0.942384; 0.334506; 0.004294; -0.334498; 0.942393; -0.002494; -0.004881; 0.000914; 0.999988; 0.000000; 0.000000; 0.000000; 0; 0.000000; 0.000000; 0.000000; 0.000000; -1; 88; 72; 0; 0; 0; 0; 0; 0; 0; 0; 0; 0; 0; 0; 0; 0; 0; 0; 0; 0; 0; 0; 0; 0; 0; 0; 0; 0; 0; 0; 0; 0; 0; 0; 0; 0; 0; 0; 0; 0; 0; 0; 0; 0; 0; 0; 0; 0; 0; 0; 0; 0; 0; 0; 0; 0; 0; 0; 0; 0; 0; 0; 0; 0; 0; 0; 0; 0; 0; 0; 0; 0; 0; 0; 0; 0; 0; 0; 0; 0; 0; 0; 0; 0; 0; 0; 0; 0; 0; 0; 0; 0; 0; 0; 0; 0; 0; 0; 0; 0; 0; 0; 0; 0; 0; 0; 0; 0; 0; 0; 0; 0; 0; 0; 0.000000; 0.000000; 0.000000; 0.000000; 0.000000; 0.000000; 0.000000; 0.000000; 0.000000; 0.000000; 0.000000; 0.000000; 0.000000; 0.000000; 0.000000; 0.000000; 0.000000; 0.000000; 0.000000; 0.000000; 0.000000; 0.000000; 0.000000; 0.000000; 0.000000; 0.000000; 5061; 0
131072; 260046868;677.344008; 2056; 1980; 3064; 1671; 1692; 1655; 1665; 1764; 11231; 0000; 1706; 1672; 0000; 0000; 3758; 0000; 16049; 0000; 0120; 46.201004; 1501;  0.555868;  39.590950; -997.387939; -0.376604; -0.025442;  0.084437; -1.040863;  5.129662;  0.000000;  31.000000; -2273.000000;  0000; 0000; -9650; 0000; 0000; -02328; -02999; 000000;  0.023262; -2.304895;  0.000000; 0000; 0000; 0000; 0000; 0000; 290717696; 000; 000; 000; 000; 255; 255; 255; 255; 072; 072;  0.000000; -61.975121; 003; 003; -05;  6.468399; 000; 000; 000;  0.000000; 0000; 0000; 0000; 0000; 0211; 0.000000; 0000; 0211;  0.000000;  0.000000;  0.000000; 0; 0;  0.000000; 0.000000; 0.000000; 0.000000;  0.000000;  0.000000;  0.000000; 0;  0.004883;  0.000945; -0.341073;  0.000012;  0.000028;  0.000025;  211; 677.335129; 0045;  278.000000;  50.000000; -19542.000000; 0211; 0.000000; 0.000000; 0.000000 ; 12216; 0.000000; 0.000000; 0.000000; 0.000000; 0.000000; 0.000000; 0.000000; 0.000000; 0.000000; 0.000000; 0.000000; 0.000000; 0000; 0000; 0.942383; 0.334508; 0.004290; -0.334500; 0.942392; -0.002457; -0.004865; 0.000880; 0.999988; 0.000000; 0.000000; 0.000000; 0; 0.000000; 0.000000; 0.000000; 0.000000; -1; 88; 72; 0; 0; 0; 0; 0; 0; 0; 0; 0; 0; 0; 0; 0; 0; 0; 0; 0; 0; 0; 0; 0; 0; 0; 0; 0; 0; 0; 0; 0; 0; 0; 0; 0; 0; 0; 0; 0; 0; 0; 0; 0; 0; 0; 0; 0; 0; 0; 0; 0; 0; 0; 0; 0; 0; 0; 0; 0; 0; 0; 0; 0; 0; 0; 0; 0; 0; 0; 0; 0; 0; 0; 0; 0; 0; 0; 0; 0; 0; 0; 0; 0; 0; 0; 0; 0; 0; 0; 0; 0; 0; 0; 0; 0; 0; 0; 0; 0; 0; 0; 0; 0; 0; 0; 0; 0; 0; 0; 0; 0; 0; 0; 0; 0.000000; 0.000000; 0.000000; 0.000000; 0.000000; 0.000000; 0.000000; 0.000000; 0.000000; 0.000000; 0.000000; 0.000000; 0.000000; 0.000000; 0.000000; 0.000000; 0.000000; 0.000000; 0.000000; 0.000000; 0.000000; 0.000000; 0.000000; 0.000000; 0.000000; 0.000000; 4916; 0
131072; 260046868;677.348989; 2056; 1980; 3068; 1672; 1692; 1655; 1666; 1763; 11231; 0000; 1706; 1672; 0000; 0000; 3758; 0000; 16185; 0000; 0120; 46.200378; 1501;  0.532071;  40.215759; -997.843262; -0.148796;  0.084800;  0.084437; -1.040858;  5.129687;  0.000000;  30.000000; -2307.000000;  0000; 0000; -9650; 0000; 0000; -02328; -02999; 000000;  0.023262; -2.304895;  0.000000; 0000; 0000; 0000; 0000; 0000; 290717696; 000; 000; 000; 000; 255; 255; 255; 255; 072; 072;  0.000000; -61.975121; 003; 003; -05;  6.468399; 000; 000; 000;  0.000000; 0000; 0000; 0000; 0000; 0211; 0.000000; 0000; 0211;  0.000000;  0.000000;  0.000000; 0; 0;  0.000000; 0.000000; 0.000000; 0.000000;  0.000000;  0.000000;  0.000000; 0;  0.004883;  0.000945; -0.341073;  0.000012;  0.000028;  0.000025;  211; 677.335129; 0045;  278.000000;  49.000000; -19542.000000; 0211; 0.000000; 0.000000; 0.000000 ; 12216; 0.000000; 0.000000; 0.000000; 0.000000; 0.000000; 0.000000; 0.000000; 0.000000; 0.000000; 0.000000; 0.000000; 0.000000; 0000; 0000; 0.942382; 0.334511; 0.004290; -0.334503; 0.942391; -0.002440; -0.004859; 0.000865; 0.999988; 0.000000; 0.000000; 0.000000; 0; 0.000000; 0.000000; 0.000000; 0.000000; -1; 88; 72; 0; 0; 0; 0; 0; 0; 0; 0; 0; 0; 0; 0; 0; 0; 0; 0; 0; 0; 0; 0; 0; 0; 0; 0; 0; 0; 0; 0; 0; 0; 0; 0; 0; 0; 0; 0; 0; 0; 0; 0; 0; 0; 0; 0; 0; 0; 0; 0; 0; 0; 0; 0; 0; 0; 0; 0; 0; 0; 0; 0; 0; 0; 0; 0; 0; 0; 0; 0; 0; 0; 0; 0; 0; 0; 0; 0; 0; 0; 0; 0; 0; 0; 0; 0; 0; 0; 0; 0; 0; 0; 0; 0; 0; 0; 0; 0; 0; 0; 0; 0; 0; 0; 0; 0; 0; 0; 0; 0; 0; 0; 0; 0; 0.000000; 0.000000; 0.000000; 0.000000; 0.000000; 0.000000; 0.000000; 0.000000; 0.000000; 0.000000; 0.000000; 0.000000; 0.000000; 0.000000; 0.000000; 0.000000; 0.000000; 0.000000; 0.000000; 0.000000; 0.000000; 0.000000; 0.000000; 0.000000; 0.000000; 0.000000; 4939; 0
131072; 260046868;677.353972; 2056; 1980; 3068; 1672; 1692; 1655; 1668; 1763; 11231; 0000; 1706; 1671; 0781; 2999; 0000; 0003; 16321; 0000; 0120; 46.199753; 1501;  0.524702;  40.049438; -997.226562;  0.188633;  0.007949;  0.084437; -1.040854;  5.129713;  0.000000;  30.000000; -2299.000000;  0000; 0000; -9650; 0000; 0000; -02328; -02999; 000000;  0.023262; -2.304895;  0.000000; 0000; 0000; 0000; 0000; 0000; 290717696; 000; 000; 000; 000; 255; 255; 255; 255; 072; 072;  0.000000; -61.975121; 003; 003; -05;  6.468399; 000; 000; 000;  0.000000; 0000; 0000; 0000; 0000; 0212; 0.000000; 0000; 0212;  0.000000;  0.000000;  0.000000; 0; 0;  0.000000; 0.000000; 0.000000; 0.000000;  0.000000;  0.000000;  0.000000; 0;  0.004883;  0.000945; -0.341073; -0.000101;  0.000033;  0.000025;  211; 677.335129; 0045;  277.000000;  50.000000; -19542.000000; 0212; 0.000000; 0.000000; 0.000000 ; 12216; 0.000000; 0.000000; 0.000000; 0.000000; 0.000000; 0.000000; 0.000000; 0.000000; 0.000000; 0.000000; 0.000000; 0.000000; 0000; 0000; 0.942381; 0.334514; 0.004273; -0.334506; 0.942390; -0.002450; -0.004846; 0.000879; 0.999988; 0.000000; 0.000000; 0.000000; 0; 0.000000; 0.000000; 0.000000; 0.000000; -1; 88; 72; 0; 0; 0; 0; 0; 0; 0; 0; 0; 0; 0; 0; 0; 0; 0; 0; 0; 0; 0; 0; 0; 0; 0; 0; 0; 0; 0; 0; 0; 0; 0; 0; 0; 0; 0; 0; 0; 0; 0; 0; 0; 0; 0; 0; 0; 0; 0; 0; 0; 0; 0; 0; 0; 0; 0; 0; 0; 0; 0; 0; 0; 0; 0; 0; 0; 0; 0; 0; 0; 0; 0; 0; 0; 0; 0; 0; 0; 0; 0; 0; 0; 0; 0; 0; 0; 0; 0; 0; 0; 0; 0; 0; 0; 0; 0; 0; 0; 0; 0; 0; 0; 0; 0; 0; 0; 0; 0; 0; 0; 0; 0; 0; 0.000000; 0.000000; 0.000000; 0.000000; 0.000000; 0.000000; 0.000000; 0.000000; 0.000000; 0.000000; 0.000000; 0.000000; 0.000000; 0.000000; 0.000000; 0.000000; 0.000000; 0.000000; 0.000000; 0.000000; 0.000000; 0.000000; 0.000000; 0.000000; 0.000000; 0.000000; 4946; 0
131072; 260046868;677.358981; 2056; 1980; 3068; 1672; 1692; 1655; 1671; 1764; 11231; 0000; 1706; 1672; 0000; 0000; 3758; 0000; 16458; 0000; 0120; 46.199127; 1501;  0.527487;  39.919777; -998.048584;  0.218267;  0.081446;  0.084437; -1.040851;  5.129738;  0.000000;  30.000000; -2290.000000;  0000; 0000; -9650; 0000; 0000; -02328; -02999; 000000;  0.023262; -2.304895;  0.000000; 0000; 0000; 0000; 0000; 0000; 290717696; 000; 000; 000; 000; 255; 255; 255; 255; 072; 072;  0.000000; -61.975121; 003; 003; -05;  6.468399; 000; 000; 000;  0.000000; 0000; 0000; 0000; 0000; 0212; 0.000000; 0000; 0212;  0.000000;  0.000000;  0.000000; 0; 0;  0.000000; 0.000000; 0.000000; 0.000000;  0.000000;  0.000000;  0.000000; 0;  0.004859;  0.000865; -0.341082; -0.000101;  0.000033;  0.000025;  211; 677.351771; 0045;  277.000000;  51.000000; -19542.000000; 0212; 0.000000; 0.000000; 0.000000 ; 12216; 0.000000; 0.000000; 0.000000; 0.000000; 0.000000; 0.000000; 0.000000; 0.000000; 0.000000; 0.000000; 0.000000; 0.000000; 0000; 0000; 0.942380; 0.334517; 0.004261; -0.334509; 0.942389; -0.002464; -0.004840; 0.000897; 0.999988; 0.000000; 0.000000; 0.000000; 0; 0.000000; 0.000000; 0.000000; 0.000000; -1; 88; 72; 0; 0; 0; 0; 0; 0; 0; 0; 0; 0; 0; 0; 0; 0; 0; 0; 0; 0; 0; 0; 0; 0; 0; 0; 0; 0; 0; 0; 0; 0; 0; 0; 0; 0; 0; 0; 0; 0; 0; 0; 0; 0; 0; 0; 0; 0; 0; 0; 0; 0; 0; 0; 0; 0; 0; 0; 0; 0; 0; 0; 0; 0; 0; 0; 0; 0; 0; 0; 0; 0; 0; 0; 0; 0; 0; 0; 0; 0; 0; 0; 0; 0; 0; 0; 0; 0; 0; 0; 0; 0; 0; 0; 0; 0; 0; 0; 0; 0; 0; 0; 0; 0; 0; 0; 0; 0; 0; 0; 0; 0; 0; 0; 0.000000; 0.000000; 0.000000; 0.000000; 0.000000; 0.000000; 0.000000; 0.000000; 0.000000; 0.000000; 0.000000; 0.000000; 0.000000; 0.000000; 0.000000; 0.000000; 0.000000; 0.000000; 0.000000; 0.000000; 0.000000; 0.000000; 0.000000; 0.000000; 0.000000; 0.000000; 4972; 0
131072; 260046868;677.363938; 2056; 1980; 3068; 1672; 1691; 1655; 1669; 1762; 11231; 0000; 1706; 1671; 0000; 0000; 3758; 0000; 16594; 0000; 0120; 46.198509; 1500;  0.575921;  40.098549; -999.524902;  0.318911;  0.238246;  0.084437; -1.040847;  5.129764;  0.000000;  32.000000; -2297.000000;  0000; 0000; -9650; 0000; 0000; -02328; -02999; 000000;  0.023262; -2.304895;  0.000000; 0000; 0000; 0000; 0000; 0000; 290717696; 000; 000; 000; 000; 255; 255; 255; 255; 072; 072;  0.000000; -61.975121; 003; 003; -05;  6.468399; 000; 000; 000;  0.000000; 0000; 0000; 0000; 0000; 0212; 0.000000; 0000; 0212;  0.000000;  0.000000;  0.000000; 0; 0;  0.000000; 0.000000; 0.000000; 0.000000;  0.000000;  0.000000;  0.000000; 0;  0.004859;  0.000865; -0.341082; -0.000101;  0.000033;  0.000025;  211; 677.351771; 0045;  277.000000;  52.000000; -19543.000000; 0212; 0.000000; 0.000000; 0.000000 ; 12217; 0.000000; 0.000000; 0.000000; 0.000000; 0.000000; 0.000000; 0.000000; 0.000000; 0.000000; 0.000000; 0.000000; 0.000000; 0000; 0000; 0.942379; 0.334520; 0.004260; -0.334512; 0.942388; -0.002491; -0.004848; 0.000922; 0.999988; 0.000000; 0.000000; 0.000000; 0; 0.000000; 0.000000; 0.000000; 0.000000; -1; 88; 72; 0; 0; 0; 0; 0; 0; 0; 0; 0; 0; 0; 0; 0; 0; 0; 0; 0; 0; 0; 0; 0; 0; 0; 0; 0; 0; 0; 0; 0; 0; 0; 0; 0; 0; 0; 0; 0; 0; 0; 0; 0; 0; 0; 0; 0; 0; 0; 0; 0; 0; 0; 0; 0; 0; 0; 0; 0; 0; 0; 0; 0; 0; 0; 0; 0; 0; 0; 0; 0; 0; 0; 0; 0; 0; 0; 0; 0; 0; 0; 0; 0; 0; 0; 0; 0; 0; 0; 0; 0; 0; 0; 0; 0; 0; 0; 0; 0; 0; 0; 0; 0; 0; 0; 0; 0; 0; 0; 0; 0; 0; 0; 0; 0.000000; 0.000000; 0.000000; 0.000000; 0.000000; 0.000000; 0.000000; 0.000000; 0.000000; 0.000000; 0.000000; 0.000000; 0.000000; 0.000000; 0.000000; 0.000000; 0.000000; 0.000000; 0.000000; 0.000000; 0.000000; 0.000000; 0.000000; 0.000000; 0.000000; 0.000000; 4916; 0
131072; 260046868;677.368932; 2056; 1980; 3068; 1672; 1692; 1655; 1667; 1764; 11231; 0000; 1706; 1672; 0000; 0000; 3758; 0000; 16730; 0000; 0120; 46.197891; 1501;  0.571942;  39.982590; -998.629639;  0.191381;  0.135671;  0.084437; -1.040844;  5.129789;  0.000000;  32.000000; -2292.000000;  0000; 0000; -9650; 0000; 0000; -02328; -02999; 000000;  0.023262; -2.304895;  0.000000; 0000; 0000; 0000; 0000; 0000; 290717696; 000; 000; 000; 000; 255; 255; 255; 255; 072; 072;  0.000000; -61.975121; 003; 003; -05;  6.468399; 000; 000; 000;  0.000000; 0000; 0000; 0000; 0000; 0212; 0.000000; 0000; 0212;  0.000000;  0.000000;  0.000000; 0; 0;  0.000000; 0.000000; 0.000000; 0.000000;  0.000000;  0.000000;  0.000000; 0;  0.004859;  0.000865; -0.341082;  0.000025;  0.000017;  0.000025;  211; 677.351771; 0045;  277.000000;  53.000000; -19543.000000; 0212; 0.000000; 0.000000; 0.000000 ; 12217; 0.000000; 0.000000; 0.000000; 0.000000; 0.000000; 0.000000; 0.000000; 0.000000; 0.000000; 0.000000; 0.000000; 0.000000; 0000; 0000; 0.942378; 0.334523; 0.004254; -0.334515; 0.942387; -0.002504; -0.004846; 0.000937; 0.999988; 0.000000; 0.000000; 0.000000; 0; 0.000000; 0.000000; 0.000000; 0.000000; -1; 88; 72; 0; 0; 0; 0; 0; 0; 0; 0; 0; 0; 0; 0; 0; 0; 0; 0; 0; 0; 0; 0; 0; 0; 0; 0; 0; 0; 0; 0; 0; 0; 0; 0; 0; 0; 0; 0; 0; 0; 0; 0; 0; 0; 0; 0; 0; 0; 0; 0; 0; 0; 0; 0; 0; 0; 0; 0; 0; 0; 0; 0; 0; 0; 0; 0; 0; 0; 0; 0; 0; 0; 0; 0; 0; 0; 0; 0; 0; 0; 0; 0; 0; 0; 0; 0; 0; 0; 0; 0; 0; 0; 0; 0; 0; 0; 0; 0; 0; 0; 0; 0; 0; 0; 0; 0; 0; 0; 0; 0; 0; 0; 0; 0; 0.000000; 0.000000; 0.000000; 0.000000; 0.000000; 0.000000; 0.000000; 0.000000; 0.000000; 0.000000; 0.000000; 0.000000; 0.000000; 0.000000; 0.000000; 0.000000; 0.000000; 0.000000; 0.000000; 0.000000; 0.000000; 0.000000; 0.000000; 0.000000; 0.000000; 0.000000; 4945; 0
131072; 260046868;677.373920; 2056; 1980; 3068; 1672; 1692; 1655; 1667; 1765; 11231; 0000; 1706; 1672; 0000; 0000; 3758; 0000; 16866; 0000; 0120; 46.198837; 1501;  0.600070;  39.997276; -999.304199;  0.203110;  0.206905;  0.084437; -1.040840;  5.129814;  0.000000;  34.000000; -2292.000000;  0000; 0000; -9650; 0000; 0000; -02328; -02999; 000000;  0.023262; -2.304895;  0.000000; 0000; 0000; 0000; 0000; 0000; 290717696; 000; 000; 000; 000; 255; 255; 255; 255; 072; 072;  0.000000; -61.975121; 003; 003; -05;  6.468399; 000; 000; 000;  0.000000; 0000; 0000; 0000; 0000; 0212; 0.000000; 0000; 0212;  0.000000;  0.000000;  0.000000; 0; 0;  0.000000; 0.000000; 0.000000; 0.000000;  0.000000;  0.000000;  0.000000; 0;  0.004848;  0.000922; -0.341092;  0.000025;  0.000017;  0.000025;  212; 677.368376; 0045;  277.000000;  54.000000; -19543.000000; 0212; 0.000000; 0.000000; 0.000000 ; 12217; 0.000000; 0.000000; 0.000000; 0.000000; 0.000000; 0.000000; 0.000000; 0.000000; 0.000000; 0.000000; 0.000000; 0.000000; 0000; 0000; 0.942377; 0.334526; 0.004253; -0.334518; 0.942386; -0.002521; -0.004851; 0.000953; 0.999988; 0.000000; 0.000000; 0.000000; 0; 0.000000; 0.000000; 0.000000; 0.000000; -1; 88; 72; 0; 0; 0; 0; 0; 0; 0; 0; 0; 0; 0; 0; 0; 0; 0; 0; 0; 0; 0; 0; 0; 0; 0; 0; 0; 0; 0; 0; 0; 0; 0; 0; 0; 0; 0; 0; 0; 0; 0; 0; 0; 0; 0; 0; 0; 0; 0; 0; 0; 0; 0; 0; 0; 0; 0; 0; 0; 0; 0; 0; 0; 0; 0; 0; 0; 0; 0; 0; 0; 0; 0; 0; 0; 0; 0; 0; 0; 0; 0; 0; 0; 0; 0; 0; 0; 0; 0; 0; 0; 0; 0; 0; 0; 0; 0; 0; 0; 0; 0; 0; 0; 0; 0; 0; 0; 0; 0; 0; 0; 0; 0; 0; 0.000000; 0.000000; 0.000000; 0.000000; 0.000000; 0.000000; 0.000000; 0.000000; 0.000000; 0.000000; 0.000000; 0.000000; 0.000000; 0.000000; 0.000000; 0.000000; 0.000000; 0.000000; 0.000000; 0.000000; 0.000000; 0.000000; 0.000000; 0.000000; 0.000000; 0.000000; 4947; 0
131072; 260046868;677.380193; 2056; 1980; 3068; 1671; 1692; 1655; 1665; 1763; 11231; 0000; 1706; 1672; 0000; 0000; 3758; 0000; 17001; 0000; 0120; 46.198219; 1502;  0.555879;  40.060081; -998.572510;  0.051861;  0.141863;  0.084437; -1.040835;  5.129839;  0.000000;  31.000000; -2297.000000;  0000; 0000; -9650; 0000; 0000; -02328; -02999; 000000;  0.023262; -2.304895;  0.000000; 0000; 0000; 0000; 0000; 0000; 290717696; 000; 000; 000; 000; 255; 255; 255; 255; 072; 072;  0.000000; -61.975121; 003; 003; -05;  6.468399; 000; 000; 000;  0.000000; 0000; 0000; 0000; 0000; 0212; 0.000000; 0000; 0212;  0.000000;  0.000000;  0.000000; 0; 0;  0.000000; 0.000000; 0.000000; 0.000000;  0.000000;  0.000000;  0.000000; 0;  0.004848;  0.000922; -0.341092;  0.000025;  0.000017;  0.000025;  212; 677.368376; 0045;  277.000000;  54.000000; -19543.000000; 0212; 0.000000; 0.000000; 0.000000 ; 12217; 0.000000; 0.000000; 0.000000; 0.000000; 0.000000; 0.000000; 0.000000; 0.000000; 0.000000; 0.000000; 0.000000; 0.000000; 0000; 0000; 0.942376; 0.334529; 0.004252; -0.334521; 0.942385; -0.002523; -0.004850; 0.000955; 0.999988; 0.000000; 0.000000; 0.000000; 0; 0.000000; 0.000000; 0.000000; 0.000000; -1; 88; 72; 0; 0; 0; 0; 0; 0; 0; 0; 0; 0; 0; 0; 0; 0; 0; 0; 0; 0; 0; 0; 0; 0; 0; 0; 0; 0; 0; 0; 0; 0; 0; 0; 0; 0; 0; 0; 0; 0; 0; 0; 0; 0; 0; 0; 0; 0; 0; 0; 0; 0; 0; 0; 0; 0; 0; 0; 0; 0; 0; 0; 0; 0; 0; 0; 0; 0; 0; 0; 0; 0; 0; 0; 0; 0; 0; 0; 0; 0; 0; 0; 0; 0; 0; 0; 0; 0; 0; 0; 0; 0; 0; 0; 0; 0; 0; 0; 0; 0; 0; 0; 0; 0; 0; 0; 0; 0; 0; 0; 0; 0; 0; 0; 0.000000; 0.000000; 0.000000; 0.000000; 0.000000; 0.000000; 0.000000; 0.000000; 0.000000; 0.000000; 0.000000; 0.000000; 0.000000; 0.000000; 0.000000; 0.000000; 0.000000; 0.000000; 0.000000; 0.000000; 0.000000; 0.000000; 0.000000; 0.000000; 0.000000; 0.000000; 6234; 0
131072; 260046932;677.383934; 2056; 1980; 3068; 1672; 1692; 1655; 1669; 1767; 11231; 0000; 1706; 1672; 0000; 0000; 3758; 0000; 17137; 0000; 0120; 46.199165; 1501;  0.554986;  40.008942; -998.462402;  0.122255; -0.016855;  0.084437; -1.040832;  5.129864;  0.000000;  31.000000; -2294.000000;  0000; 0000; -9650; 0000; 0000; -02328; -02999; 000000;  0.023262; -2.304895;  0.000000; 0000; 0000; 0000; 0000; 0000; 290717696; 000; 000; 000; 000; 255; 255; 255; 255; 072; 072;  0.000000; -61.975121; 003; 003; -05;  6.468399; 000; 000; 000;  0.000000; 0000; 0000; 0000; 0000; 0212; 0.000000; 0000; 0212;  0.000000;  0.000000;  0.000000; 0; 0;  0.000000; 0.000000; 0.000000; 0.000000;  0.000000;  0.000000;  0.000000; 0;  0.004848;  0.000922; -0.341092;  0.000025;  0.000017;  0.000025;  212; 677.368376; 0045;  277.000000;  55.000000; -19543.000000; 0212; 0.000000; 0.000000; 0.000000 ; 12217; 0.000000; 0.000000; 0.000000; 0.000000; 0.000000; 0.000000; 0.000000; 0.000000; 0.000000; 0.000000; 0.000000; 0.000000; 0000; 0000; 0.942375; 0.334532; 0.004235; -0.334524; 0.942384; -0.002526; -0.004836; 0.000964; 0.999988; 0.000000; 0.000000; 0.000000; 0; 0.000000; 0.000000; 0.000000; 0.000000; -1; 88; 72; 0; 0; 0; 0; 0; 0; 0; 0; 0; 0; 0; 0; 0; 0; 0; 0; 0; 0; 0; 0; 0; 0; 0; 0; 0; 0; 0; 0; 0; 0; 0; 0; 0; 0; 0; 0; 0; 0; 0; 0; 0; 0; 0; 0; 0; 0; 0; 0; 0; 0; 0; 0; 0; 0; 0; 0; 0; 0; 0; 0; 0; 0; 0; 0; 0; 0; 0; 0; 0; 0; 0; 0; 0; 0; 0; 0; 0; 0; 0; 0; 0; 0; 0; 0; 0; 0; 0; 0; 0; 0; 0; 0; 0; 0; 0; 0; 0; 0; 0; 0; 0; 0; 0; 0; 0; 0; 0; 0; 0; 0; 0; 0; 0.000000; 0.000000; 0.000000; 0.000000; 0.000000; 0.000000; 0.000000; 0.000000; 0.000000; 0.000000; 0.000000; 0.000000; 0.000000; 0.000000; 0.000000; 0.000000; 0.000000; 0.000000; 0.000000; 0.000000; 0.000000; 0.000000; 0.000000; 0.000000; 0.000000; 0.000000; 3700; 0
131072; 260046932;677.388914; 2056; 1980; 3068; 1671; 1692; 1655; 1667; 1765; 11231; 0000; 1706; 1672; 0000; 0000; 3758; 0000; 17273; 0000; 0120; 46.198547; 1502;  0.574263;  40.007065; -998.946777; -0.076075;  0.079295;  0.084437; -1.040828;  5.129889;  0.000000;  32.000000; -2293.000000;  0000; 0000; -9650; 0000; 0000; -02328; -02999; 000000;  0.023262; -2.304895;  0.000000; 0000; 0000; 0000; 0000; 0000; 290717696; 000; 000; 000; 000; 255; 255; 255; 255; 072; 072;  0.000000; -61.975121; 003; 003; -05;  6.468399; 000; 000; 000;  0.000000; 0000; 0000; 0000; 0000; 0212; 0.000000; 0000; 0212;  0.000000;  0.000000;  0.000000; 0; 0;  0.000000; 0.000000; 0.000000; 0.000000;  0.000000;  0.000000;  0.000000; 0;  0.004836;  0.000964; -0.341104;  0.000056;  0.000053;  0.000025;  212; 677.385015; 0045;  276.000000;  54.000000; -19543.000000; 0212; 0.000000; 0.000000; 0.000000 ; 12217; 0.000000; 0.000000; 0.000000; 0.000000; 0.000000; 0.000000; 0.000000; 0.000000; 0.000000; 0.000000; 0.000000; 0.000000; 0000; 0000; 0.942374; 0.334535; 0.004232; -0.334527; 0.942383; -0.002515; -0.004829; 0.000955; 0.999988; 0.000000; 0.000000; 0.000000; 0; 0.000000; 0.000000; 0.000000; 0.000000; -1; 88; 72; 0; 0; 0; 0; 0; 0; 0; 0; 0; 0; 0; 0; 0; 0; 0; 0; 0; 0; 0; 0; 0; 0; 0; 0; 0; 0; 0; 0; 0; 0; 0; 0; 0; 0; 0; 0; 0; 0; 0; 0; 0; 0; 0; 0; 0; 0; 0; 0; 0; 0; 0; 0; 0; 0; 0; 0; 0; 0; 0; 0; 0; 0; 0; 0; 0; 0; 0; 0; 0; 0; 0; 0; 0; 0; 0; 0; 0; 0; 0; 0; 0; 0; 0; 0; 0; 0; 0; 0; 0; 0; 0; 0; 0; 0; 0; 0; 0; 0; 0; 0; 0; 0; 0; 0; 0; 0; 0; 0; 0; 0; 0; 0; 0.000000; 0.000000; 0.000000; 0.000000; 0.000000; 0.000000; 0.000000; 0.000000; 0.000000; 0.000000; 0.000000; 0.000000; 0.000000; 0.000000; 0.000000; 0.000000; 0.000000; 0.000000; 0.000000; 0.000000; 0.000000; 0.000000; 0.000000; 0.000000; 0.000000; 0.000000; 4938; 0
131072; 260046932;677.393939; 2056; 1980; 3068; 1671; 1692; 1655; 1665; 1765; 11231; 0000; 1706; 1672; 0778; 2999; 0000; 0003; 17410; 0000; 0120; 46.199493; 1501;  0.571553;  40.031372; -998.882324; -0.099137;  0.010577;  0.084437; -1.040823;  5.129915;  0.000000;  32.000000; -2294.000000;  0000; 0000; -9650; 0000; 0000; -02328; -02999; 000000;  0.023262; -2.304895;  0.000000; 0000; 0000; 0000; 0000; 0000; 290717696; 000; 000; 000; 000; 255; 255; 255; 255; 072; 072;  0.000000; -61.975121; 003; 003; -05;  6.468399; 000; 000; 000;  0.000000; 0000; 0000; 0000; 0000; 0211; 0.000000; 0000; 0211;  0.000000;  0.000000;  0.000000; 0; 0;  0.000000; 0.000000; 0.000000; 0.000000;  0.000000;  0.000000;  0.000000; 0;  0.004836;  0.000964; -0.341104;  0.000056;  0.000053;  0.000025;  212; 677.385015; 0045;  276.000000;  54.000000; -19544.000000; 0211; 0.000000; 0.000000; 0.000000 ; 12217; 0.000000; 0.000000; 0.000000; 0.000000; 0.000000; 0.000000; 0.000000; 0.000000; 0.000000; 0.000000; 0.000000; 0.000000; 0000; 0000; 0.942373; 0.334538; 0.004224; -0.334529; 0.942382; -0.002501; -0.004817; 0.000944; 0.999988; 0.000000; 0.000000; 0.000000; 0; 0.000000; 0.000000; 0.000000; 0.000000; -1; 88; 72; 0; 0; 0; 0; 0; 0; 0; 0; 0; 0; 0; 0; 0; 0; 0; 0; 0; 0; 0; 0; 0; 0; 0; 0; 0; 0; 0; 0; 0; 0; 0; 0; 0; 0; 0; 0; 0; 0; 0; 0; 0; 0; 0; 0; 0; 0; 0; 0; 0; 0; 0; 0; 0; 0; 0; 0; 0; 0; 0; 0; 0; 0; 0; 0; 0; 0; 0; 0; 0; 0; 0; 0; 0; 0; 0; 0; 0; 0; 0; 0; 0; 0; 0; 0; 0; 0; 0; 0; 0; 0; 0; 0; 0; 0; 0; 0; 0; 0; 0; 0; 0; 0; 0; 0; 0; 0; 0; 0; 0; 0; 0; 0; 0.000000; 0.000000; 0.000000; 0.000000; 0.000000; 0.000000; 0.000000; 0.000000; 0.000000; 0.000000; 0.000000; 0.000000; 0.000000; 0.000000; 0.000000; 0.000000; 0.000000; 0.000000; 0.000000; 0.000000; 0.000000; 0.000000; 0.000000; 0.000000; 0.000000; 0.000000; 4983; 0
131072; 260046932;677.398895; 2056; 1980; 3068; 1671; 1692; 1655; 1667; 1768; 11231; 0000; 1706; 1672; 0000; 0000; 3758; 0000; 17546; 0000; 0120; 46.198868; 1501;  0.569004;  40.014664; -998.736328; -0.116263;  0.077600;  0.084437; -1.040819;  5.129940;  0.000000;  32.000000; -2294.000000;  0000; 0000; -9650; 0000; 0000; -02328; -02999; 000000;  0.023262; -2.304895;  0.000000; 0000; 0000; 0000; 0000; 0000; 290717696; 000; 000; 000; 000; 255; 255; 255; 255; 072; 072;  0.000000; -61.975121; 003; 003; -05;  6.468399; 000; 000; 000;  0.000000; 0000; 0000; 0000; 0000; 0211; 0.000000; 0000; 0211;  0.000000;  0.000000;  0.000000; 0; 0;  0.000000; 0.000000; 0.000000; 0.000000;  0.000000;  0.000000;  0.000000; 0;  0.004836;  0.000964; -0.341104;  0.000056;  0.000053;  0.000025;  212; 677.385015; 0045;  275.000000;  53.000000; -19544.000000; 0211; 0.000000; 0.000000; 0.000000 ; 12217; 0.000000; 0.000000; 0.000000; 0.000000; 0.000000; 0.000000; 0.000000; 0.000000; 0.000000; 0.000000; 0.000000; 0.000000; 0000; 0000; 0.942372; 0.334540; 0.004222; -0.334532; 0.942381; -0.002488; -0.004811; 0.000932; 0.999988; 0.000000; 0.000000; 0.000000; 0; 0.000000; 0.000000; 0.000000; 0.000000; -1; 88; 72; 0; 0; 0; 0; 0; 0; 0; 0; 0; 0; 0; 0; 0; 0; 0; 0; 0; 0; 0; 0; 0; 0; 0; 0; 0; 0; 0; 0; 0; 0; 0; 0; 0; 0; 0; 0; 0; 0; 0; 0; 0; 0; 0; 0; 0; 0; 0; 0; 0; 0; 0; 0; 0; 0; 0; 0; 0; 0; 0; 0; 0; 0; 0; 0; 0; 0; 0; 0; 0; 0; 0; 0; 0; 0; 0; 0; 0; 0; 0; 0; 0; 0; 0; 0; 0; 0; 0; 0; 0; 0; 0; 0; 0; 0; 0; 0; 0; 0; 0; 0; 0; 0; 0; 0; 0; 0; 0; 0; 0; 0; 0; 0; 0.000000; 0.000000; 0.000000; 0.000000; 0.000000; 0.000000; 0.000000; 0.000000; 0.000000; 0.000000; 0.000000; 0.000000; 0.000000; 0.000000; 0.000000; 0.000000; 0.000000; 0.000000; 0.000000; 0.000000; 0.000000; 0.000000; 0.000000; 0.000000; 0.000000; 0.000000; 4916; 0
131072; 260046932;677.403890; 2056; 1980; 3064; 1672; 1692; 1655; 1671; 1766; 11231; 0000; 1706; 1672; 0000; 0000; 3758; 0000; 17682; 0000; 0120; 46.199814; 1503;  0.508585;  39.987350; -997.386230; -0.132972;  0.093003;  0.084437; -1.040816;  5.129965;  0.000000;  29.000000; -2295.000000;  0000; 0000; -9650; 0000; 0000; -02328; -02999; 000000;  0.023262; -2.304895;  0.000000; 0000; 0000; 0000; 0000; 0000; 290717696; 000; 000; 000; 000; 255; 255; 255; 255; 072; 072;  0.000000; -61.975121; 003; 003; -05;  6.468399; 000; 000; 000;  0.000000; 0000; 0000; 0000; 0000; 0211; 0.000000; 0000; 0211;  0.000000;  0.000000;  0.000000; 0; 0;  0.000000; 0.000000; 0.000000; 0.000000;  0.000000;  0.000000;  0.000000; 0;  0.004836;  0.000964; -0.341104; -0.000005;  0.000007;  0.000025;  212; 677.385015; 0045;  275.000000;  52.000000; -19544.000000; 0211; 0.000000; 0.000000; 0.000000 ; 12217; 0.000000; 0.000000; 0.000000; 0.000000; 0.000000; 0.000000; 0.000000; 0.000000; 0.000000; 0.000000; 0.000000; 0.000000; 0000; 0000; 0.942371; 0.334543; 0.004222; -0.334535; 0.942380; -0.002473; -0.004806; 0.000918; 0.999988; 0.000000; 0.000000; 0.000000; 0; 0.000000; 0.000000; 0.000000; 0.000000; -1; 88; 72; 0; 0; 0; 0; 0; 0; 0; 0; 0; 0; 0; 0; 0; 0; 0; 0; 0; 0; 0; 0; 0; 0; 0; 0; 0; 0; 0; 0; 0; 0; 0; 0; 0; 0; 0; 0; 0; 0; 0; 0; 0; 0; 0; 0; 0; 0; 0; 0; 0; 0; 0; 0; 0; 0; 0; 0; 0; 0; 0; 0; 0; 0; 0; 0; 0; 0; 0; 0; 0; 0; 0; 0; 0; 0; 0; 0; 0; 0; 0; 0; 0; 0; 0; 0; 0; 0; 0; 0; 0; 0; 0; 0; 0; 0; 0; 0; 0; 0; 0; 0; 0; 0; 0; 0; 0; 0; 0; 0; 0; 0; 0; 0; 0.000000; 0.000000; 0.000000; 0.000000; 0.000000; 0.000000; 0.000000; 0.000000; 0.000000; 0.000000; 0.000000; 0.000000; 0.000000; 0.000000; 0.000000; 0.000000; 0.000000; 0.000000; 0.000000; 0.000000; 0.000000; 0.000000; 0.000000; 0.000000; 0.000000; 0.000000; 4956; 0
131072; 260046868;677.408907; 2056; 1980; 3064; 1671; 1692; 1655; 1668; 1762; 11231; 0000; 1706; 1672; 0000; 0000; 3758; 0000; 17817; 0000; 0120; 46.199188; 1501;  0.464604;  39.974030; -996.401611; -0.036274;  0.045771;  0.084437; -1.040812;  5.129991;  0.000000;  26.000000; -2297.000000;  0000; 0000; -9650; 0000; 0000; -02328; -02999; 000000;  0.023262; -2.304895;  0.000000; 0000; 0000; 0000; 0000; 0000; 290717696; 000; 000; 000; 000; 255; 255; 255; 255; 072; 072;  0.000000; -61.975121; 003; 003; -05;  6.468399; 000; 000; 000;  0.000000; 0000; 0000; 0000; 0000; 0211; 0.000000; 0000; 0211;  0.000000;  0.000000;  0.000000; 0; 0;  0.000000; 0.000000; 0.000000; 0.000000;  0.000000;  0.000000;  0.000000; 0;  0.004811;  0.000932; -0.341113; -0.000005;  0.000007;  0.000025;  211; 677.401641; 0045;  274.000000;  52.000000; -19544.000000; 0211; 0.000000; 0.000000; 0.000000 ; 12217; 0.000000; 0.000000; 0.000000; 0.000000; 0.000000; 0.000000; 0.000000; 0.000000; 0.000000; 0.000000; 0.000000; 0.000000; 0000; 0000; 0.942370; 0.334546; 0.004214; -0.334538; 0.942379; -0.002465; -0.004796; 0.000913; 0.999988; 0.000000; 0.000000; 0.000000; 0; 0.000000; 0.000000; 0.000000; 0.000000; -1; 88; 72; 0; 0; 0; 0; 0; 0; 0; 0; 0; 0; 0; 0; 0; 0; 0; 0; 0; 0; 0; 0; 0; 0; 0; 0; 0; 0; 0; 0; 0; 0; 0; 0; 0; 0; 0; 0; 0; 0; 0; 0; 0; 0; 0; 0; 0; 0; 0; 0; 0; 0; 0; 0; 0; 0; 0; 0; 0; 0; 0; 0; 0; 0; 0; 0; 0; 0; 0; 0; 0; 0; 0; 0; 0; 0; 0; 0; 0; 0; 0; 0; 0; 0; 0; 0; 0; 0; 0; 0; 0; 0; 0; 0; 0; 0; 0; 0; 0; 0; 0; 0; 0; 0; 0; 0; 0; 0; 0; 0; 0; 0; 0; 0; 0.000000; 0.000000; 0.000000; 0.000000; 0.000000; 0.000000; 0.000000; 0.000000; 0.000000; 0.000000; 0.000000; 0.000000; 0.000000; 0.000000; 0.000000; 0.000000; 0.000000; 0.000000; 0.000000; 0.000000; 0.000000; 0.000000; 0.000000; 0.000000; 0.000000; 0.000000; 4978; 0
131072; 260046868;677.413895; 2056; 1980; 3064; 1672; 1691; 1655; 1670; 1762; 11231; 0000; 1706; 1672; 0000; 0000; 3758; 0000; 17953; 0000; 0120; 46.198570; 1501;  0.399185;  39.932419; -994.857910;  0.082550;  0.193083;  0.084437; -1.040809;  5.130016;  0.000000;  22.000000; -2298.000000;  0000; 0000; -9650; 0000; 0000; -02328; -02999; 000000;  0.023262; -2.304895;  0.000000; 0000; 0000; 0000; 0000; 0000; 290717696; 000; 000; 000; 000; 255; 255; 255; 255; 072; 072;  0.000000; -61.975121; 003; 003; -05;  6.468399; 000; 000; 000;  0.000000; 0000; 0000; 0000; 0000; 0211; 0.000000; 0000; 0211;  0.000000;  0.000000;  0.000000; 0; 0;  0.000000; 0.000000; 0.000000; 0.000000;  0.000000;  0.000000;  0.000000; 0;  0.004811;  0.000932; -0.341113; -0.000005;  0.000007;  0.000025;  211; 677.401641; 0045;  275.000000;  52.000000; -19544.000000; 0211; 0.000000; 0.000000; 0.000000 ; 12218; 0.000000; 0.000000; 0.000000; 0.000000; 0.000000; 0.000000; 0.000000; 0.000000; 0.000000; 0.000000; 0.000000; 0.000000; 0000; 0000; 0.942369; 0.334549; 0.004216; -0.334541; 0.942378; -0.002471; -0.004800; 0.000919; 0.999988; 0.000000; 0.000000; 0.000000; 0; 0.000000; 0.000000; 0.000000; 0.000000; -1; 88; 72; 0; 0; 0; 0; 0; 0; 0; 0; 0; 0; 0; 0; 0; 0; 0; 0; 0; 0; 0; 0; 0; 0; 0; 0; 0; 0; 0; 0; 0; 0; 0; 0; 0; 0; 0; 0; 0; 0; 0; 0; 0; 0; 0; 0; 0; 0; 0; 0; 0; 0; 0; 0; 0; 0; 0; 0; 0; 0; 0; 0; 0; 0; 0; 0; 0; 0; 0; 0; 0; 0; 0; 0; 0; 0; 0; 0; 0; 0; 0; 0; 0; 0; 0; 0; 0; 0; 0; 0; 0; 0; 0; 0; 0; 0; 0; 0; 0; 0; 0; 0; 0; 0; 0; 0; 0; 0; 0; 0; 0; 0; 0; 0; 0.000000; 0.000000; 0.000000; 0.000000; 0.000000; 0.000000; 0.000000; 0.000000; 0.000000; 0.000000; 0.000000; 0.000000; 0.000000; 0.000000; 0.000000; 0.000000; 0.000000; 0.000000; 0.000000; 0.000000; 0.000000; 0.000000; 0.000000; 0.000000; 0.000000; 0.000000; 4949; 0
131072; 260046868;677.418864; 2056; 1980; 3064; 1672; 1692; 1655; 1668; 1765; 11231; 0000; 1706; 1672; 0000; 0000; 3758; 0000; 18089; 0000; 0120; 46.199516; 1501;  0.369263;  39.918343; -994.168701;  0.135651;  0.159061;  0.084437; -1.040806;  5.130043;  0.000000;  21.000000; -2299.000000;  0000; 0000; -9650; 0000; 0000; -02328; -02999; 000000;  0.023262; -2.304895;  0.000000; 0000; 0000; 0000; 0000; 0000; 290717696; 000; 000; 000; 000; 255; 255; 255; 255; 072; 072;  0.000000; -61.975121; 003; 003; -05;  6.468399; 000; 000; 000;  0.000000; 0000; 0000; 0000; 0000; 0211; 0.000000; 0000; 0211;  0.000000;  0.000000;  0.000000; 0; 0;  0.000000; 0.000000; 0.000000; 0.000000;  0.000000;  0.000000;  0.000000; 0;  0.004811;  0.000932; -0.341113; -0.000028;  0.000021;  0.000025;  211; 677.401641; 0045;  275.000000;  53.000000; -19545.000000; 0211; 0.000000; 0.000000; 0.000000 ; 12218; 0.000000; 0.000000; 0.000000; 0.000000; 0.000000; 0.000000; 0.000000; 0.000000; 0.000000; 0.000000; 0.000000; 0.000000; 0000; 0000; 0.942368; 0.334552; 0.004213; -0.334544; 0.942377; -0.002481; -0.004800; 0.000929; 0.999988; 0.000000; 0.000000; 0.000000; 0; 0.000000; 0.000000; 0.000000; 0.000000; -1; 88; 72; 0; 0; 0; 0; 0; 0; 0; 0; 0; 0; 0; 0; 0; 0; 0; 0; 0; 0; 0; 0; 0; 0; 0; 0; 0; 0; 0; 0; 0; 0; 0; 0; 0; 0; 0; 0; 0; 0; 0; 0; 0; 0; 0; 0; 0; 0; 0; 0; 0; 0; 0; 0; 0; 0; 0; 0; 0; 0; 0; 0; 0; 0; 0; 0; 0; 0; 0; 0; 0; 0; 0; 0; 0; 0; 0; 0; 0; 0; 0; 0; 0; 0; 0; 0; 0; 0; 0; 0; 0; 0; 0; 0; 0; 0; 0; 0; 0; 0; 0; 0; 0; 0; 0; 0; 0; 0; 0; 0; 0; 0; 0; 0; 0.000000; 0.000000; 0.000000; 0.000000; 0.000000; 0.000000; 0.000000; 0.000000; 0.000000; 0.000000; 0.000000; 0.000000; 0.000000; 0.000000; 0.000000; 0.000000; 0.000000; 0.000000; 0.000000; 0.000000; 0.000000; 0.000000; 0.000000; 0.000000; 0.000000; 0.000000; 4928; 0
131072; 260046868;677.423882; 2056; 1984; 3068; 1672; 1692; 1655; 1667; 1766; 11231; 0000; 1706; 1672; 0000; 0000; 3758; 0000; 18226; 0000; 0120; 46.200455; 1501;  0.489990;  38.533653; -996.382080;  0.169108;  0.214514;  0.084437; -1.040810;  5.130068;  0.000000;  28.000000; -2214.000000;  0000; 0000; -9650; 0000; 0000; -02328; -02999; 000000;  0.023262; -2.304895;  0.000000; 0000; 0000; 0000; 0000; 0000; 290717696; 000; 000; 000; 000; 255; 255; 255; 255; 072; 072;  0.000000; -61.975121; 003; 003; -05;  6.468399; 000; 000; 000;  0.000000; 0000; 0000; 0000; 0000; 0211; 0.000000; 0000; 0211;  0.000000;  0.000000;  0.000000; 0; 0;  0.000000; 0.000000; 0.000000; 0.000000;  0.000000;  0.000000;  0.000000; 0;  0.004800;  0.000919; -0.341122; -0.000028;  0.000021;  0.000025;  211; 677.418275; 0045;  275.000000;  54.000000; -19545.000000; 0211; 0.000000; 0.000000; 0.000000 ; 12218; 0.000000; 0.000000; 0.000000; 0.000000; 0.000000; 0.000000; 0.000000; 0.000000; 0.000000; 0.000000; 0.000000; 0.000000; 0000; 0000; 0.942367; 0.334555; 0.004212; -0.334547; 0.942376; -0.002499; -0.004805; 0.000946; 0.999988; 0.000000; 0.000000; 0.000000; 0; 0.000000; 0.000000; 0.000000; 0.000000; -1; 88; 72; 0; 0; 0; 0; 0; 0; 0; 0; 0; 0; 0; 0; 0; 0; 0; 0; 0; 0; 0; 0; 0; 0; 0; 0; 0; 0; 0; 0; 0; 0; 0; 0; 0; 0; 0; 0; 0; 0; 0; 0; 0; 0; 0; 0; 0; 0; 0; 0; 0; 0; 0; 0; 0; 0; 0; 0; 0; 0; 0; 0; 0; 0; 0; 0; 0; 0; 0; 0; 0; 0; 0; 0; 0; 0; 0; 0; 0; 0; 0; 0; 0; 0; 0; 0; 0; 0; 0; 0; 0; 0; 0; 0; 0; 0; 0; 0; 0; 0; 0; 0; 0; 0; 0; 0; 0; 0; 0; 0; 0; 0; 0; 0; 0.000000; 0.000000; 0.000000; 0.000000; 0.000000; 0.000000; 0.000000; 0.000000; 0.000000; 0.000000; 0.000000; 0.000000; 0.000000; 0.000000; 0.000000; 0.000000; 0.000000; 0.000000; 0.000000; 0.000000; 0.000000; 0.000000; 0.000000; 0.000000; 0.000000; 0.000000; 4976; 0
131072; 260046868;677.428863; 2056; 1980; 3068; 1671; 1691; 1655; 1665; 1762; 11231; 0000; 1706; 1672; 0000; 0000; 3758; 0000; 18362; 0000; 0120; 46.199829; 1502;  0.513048;  39.042847; -997.110107;  0.152044;  0.280692;  0.084437; -1.040811;  5.130093;  0.000000;  29.000000; -2242.000000;  0000; 0000; -9650; 0000; 0000; -02328; -02999; 000000;  0.023262; -2.304895;  0.000000; 0000; 0000; 0000; 0000; 0000; 290717696; 000; 000; 000; 000; 255; 255; 255; 255; 072; 072;  0.000000; -61.975121; 003; 003; -05;  6.468399; 000; 000; 000;  0.000000; 0000; 0000; 0000; 0000; 0211; 0.000000; 0000; 0211;  0.000000;  0.000000;  0.000000; 0; 0;  0.000000; 0.000000; 0.000000; 0.000000;  0.000000;  0.000000;  0.000000; 0;  0.004800;  0.000919; -0.341122; -0.000028;  0.000021;  0.000025;  211; 677.418275; 0045;  275.000000;  54.000000; -19545.000000; 0211; 0.000000; 0.000000; 0.000000 ; 12218; 0.000000; 0.000000; 0.000000; 0.000000; 0.000000; 0.000000; 0.000000; 0.000000; 0.000000; 0.000000; 0.000000; 0.000000; 0000; 0000; 0.942366; 0.334558; 0.004218; -0.334550; 0.942375; -0.002516; -0.004817; 0.000960; 0.999988; 0.000000; 0.000000; 0.000000; 0; 0.000000; 0.000000; 0.000000; 0.000000; -1; 88; 72; 0; 0; 0; 0; 0; 0; 0; 0; 0; 0; 0; 0; 0; 0; 0; 0; 0; 0; 0; 0; 0; 0; 0; 0; 0; 0; 0; 0; 0; 0; 0; 0; 0; 0; 0; 0; 0; 0; 0; 0; 0; 0; 0; 0; 0; 0; 0; 0; 0; 0; 0; 0; 0; 0; 0; 0; 0; 0; 0; 0; 0; 0; 0; 0; 0; 0; 0; 0; 0; 0; 0; 0; 0; 0; 0; 0; 0; 0; 0; 0; 0; 0; 0; 0; 0; 0; 0; 0; 0; 0; 0; 0; 0; 0; 0; 0; 0; 0; 0; 0; 0; 0; 0; 0; 0; 0; 0; 0; 0; 0; 0; 0; 0.000000; 0.000000; 0.000000; 0.000000; 0.000000; 0.000000; 0.000000; 0.000000; 0.000000; 0.000000; 0.000000; 0.000000; 0.000000; 0.000000; 0.000000; 0.000000; 0.000000; 0.000000; 0.000000; 0.000000; 0.000000; 0.000000; 0.000000; 0.000000; 0.000000; 0.000000; 4927; 0
131072; 260046868;677.433860; 2056; 1980; 3068; 1672; 1692; 1655; 1668; 1765; 11231; 0000; 1706; 1672; 0781; 3003; 0000; 0003; 18498; 0000; 0120; 46.199203; 1501;  0.615712;  38.457741; -999.238037;  0.059914;  0.081276;  0.084437; -1.040815;  5.130117;  0.000000;  35.000000; -2204.000000;  0000; 0000; -9650; 0000; 0000; -02328; -02999; 000000;  0.023262; -2.304895;  0.000000; 0000; 0000; 0000; 0000; 0000; 290717696; 000; 000; 000; 000; 255; 255; 255; 255; 072; 072;  0.000000; -61.975121; 003; 003; -05;  6.468399; 000; 000; 000;  0.000000; 0000; 0000; 0000; 0000; 0212; 0.000000; 0000; 0212;  0.000000;  0.000000;  0.000000; 0; 0;  0.000000; 0.000000; 0.000000; 0.000000;  0.000000;  0.000000;  0.000000; 0;  0.004800;  0.000919; -0.341122; -0.000028;  0.000021;  0.000025;  211; 677.418275; 0045;  275.000000;  55.000000; -19545.000000; 0212; 0.000000; 0.000000; 0.000000 ; 12218; 0.000000; 0.000000; 0.000000; 0.000000; 0.000000; 0.000000; 0.000000; 0.000000; 0.000000; 0.000000; 0.000000; 0.000000; 0000; 0000; 0.942365; 0.334561; 0.004210; -0.334553; 0.942374; -0.002521; -0.004811; 0.000967; 0.999988; 0.000000; 0.000000; 0.000000; 0; 0.000000; 0.000000; 0.000000; 0.000000; -1; 88; 72; 0; 0; 0; 0; 0; 0; 0; 0; 0; 0; 0; 0; 0; 0; 0; 0; 0; 0; 0; 0; 0; 0; 0; 0; 0; 0; 0; 0; 0; 0; 0; 0; 0; 0; 0; 0; 0; 0; 0; 0; 0; 0; 0; 0; 0; 0; 0; 0; 0; 0; 0; 0; 0; 0; 0; 0; 0; 0; 0; 0; 0; 0; 0; 0; 0; 0; 0; 0; 0; 0; 0; 0; 0; 0; 0; 0; 0; 0; 0; 0; 0; 0; 0; 0; 0; 0; 0; 0; 0; 0; 0; 0; 0; 0; 0; 0; 0; 0; 0; 0; 0; 0; 0; 0; 0; 0; 0; 0; 0; 0; 0; 0; 0.000000; 0.000000; 0.000000; 0.000000; 0.000000; 0.000000; 0.000000; 0.000000; 0.000000; 0.000000; 0.000000; 0.000000; 0.000000; 0.000000; 0.000000; 0.000000; 0.000000; 0.000000; 0.000000; 0.000000; 0.000000; 0.000000; 0.000000; 0.000000; 0.000000; 0.000000; 4958; 0
131072; 260046868;677.440498; 2060; 1984; 3064; 1670; 1692; 1655; 1661; 1763; 11231; 0000; 1706; 1672; 0000; 0000; 3758; 0000; 18633; 0000; 0120; 46.200150; 1502;  2.052988;  37.817307; -998.355713; -0.187384;  0.229149;  0.084437; -1.040823;  5.130135;  0.000000;  117.000000; -2169.000000;  0000; 0000; -9650; 0000; 0000; -02328; -02999; 000000;  0.023262; -2.304895;  0.000000; 0000; 0000; 0000; 0000; 0000; 290717696; 000; 000; 000; 000; 255; 255; 255; 255; 072; 072;  0.000000; -61.975121; 003; 003; -05;  6.468399; 000; 000; 000;  0.000000; 0000; 0000; 0000; 0000; 0212; 0.000000; 0000; 0212;  0.000000;  0.000000;  0.000000; 0; 0;  0.000000; 0.000000; 0.000000; 0.000000;  0.000000;  0.000000;  0.000000; 0;  0.004811;  0.000967; -0.341134;  0.000039;  0.000061;  0.000025;  212; 677.434877; 0045;  276.000000;  54.000000; -19545.000000; 0212; 0.000000; 0.000000; 0.000000 ; 12218; 0.000000; 0.000000; 0.000000; 0.000000; 0.000000; 0.000000; 0.000000; 0.000000; 0.000000; 0.000000; 0.000000; 0.000000; 0000; 0000; 0.942364; 0.334563; 0.004224; -0.334555; 0.942373; -0.002513; -0.004822; 0.000955; 0.999988; 0.000000; 0.000000; 0.000000; 0; 0.000000; 0.000000; 0.000000; 0.000000; -1; 88; 72; 0; 0; 0; 0; 0; 0; 0; 0; 0; 0; 0; 0; 0; 0; 0; 0; 0; 0; 0; 0; 0; 0; 0; 0; 0; 0; 0; 0; 0; 0; 0; 0; 0; 0; 0; 0; 0; 0; 0; 0; 0; 0; 0; 0; 0; 0; 0; 0; 0; 0; 0; 0; 0; 0; 0; 0; 0; 0; 0; 0; 0; 0; 0; 0; 0; 0; 0; 0; 0; 0; 0; 0; 0; 0; 0; 0; 0; 0; 0; 0; 0; 0; 0; 0; 0; 0; 0; 0; 0; 0; 0; 0; 0; 0; 0; 0; 0; 0; 0; 0; 0; 0; 0; 0; 0; 0; 0; 0; 0; 0; 0; 0; 0.000000; 0.000000; 0.000000; 0.000000; 0.000000; 0.000000; 0.000000; 0.000000; 0.000000; 0.000000; 0.000000; 0.000000; 0.000000; 0.000000; 0.000000; 0.000000; 0.000000; 0.000000; 0.000000; 0.000000; 0.000000; 0.000000; 0.000000; 0.000000; 0.000000; 0.000000; 6598; 0
131072; 260046868;677.443830; 2056; 1984; 3068; 1672; 1691; 1655; 1670; 1763; 11231; 0000; 1706; 1672; 0000; 0000; 3758; 0000; 18769; 0000; 0120; 46.199524; 1502;  1.511528;  38.364403; -997.755859; -0.055751;  0.225975;  0.084437; -1.040828;  5.130155;  0.000000;  86.000000; -2201.000000;  0000; 0000; -9650; 0000; 0000; -02328; -02999; 000000;  0.023262; -2.304895;  0.000000; 0000; 0000; 0000; 0000; 0000; 290717696; 000; 000; 000; 000; 255; 255; 255; 255; 072; 072;  0.000000; -61.975121; 003; 003; -05;  6.468399; 000; 000; 000;  0.000000; 0000; 0000; 0000; 0000; 0212; 0.000000; 0000; 0212;  0.000000;  0.000000;  0.000000; 0; 0;  0.000000; 0.000000; 0.000000; 0.000000;  0.000000;  0.000000;  0.000000; 0;  0.004811;  0.000967; -0.341134;  0.000039;  0.000061;  0.000025;  212; 677.434877; 0045;  276.000000;  54.000000; -19545.000000; 0212; 0.000000; 0.000000; 0.000000 ; 12218; 0.000000; 0.000000; 0.000000; 0.000000; 0.000000; 0.000000; 0.000000; 0.000000; 0.000000; 0.000000; 0.000000; 0.000000; 0000; 0000; 0.942363; 0.334566; 0.004234; -0.334558; 0.942372; -0.002514; -0.004831; 0.000953; 0.999988; 0.000000; 0.000000; 0.000000; 0; 0.000000; 0.000000; 0.000000; 0.000000; -1; 88; 72; 0; 0; 0; 0; 0; 0; 0; 0; 0; 0; 0; 0; 0; 0; 0; 0; 0; 0; 0; 0; 0; 0; 0; 0; 0; 0; 0; 0; 0; 0; 0; 0; 0; 0; 0; 0; 0; 0; 0; 0; 0; 0; 0; 0; 0; 0; 0; 0; 0; 0; 0; 0; 0; 0; 0; 0; 0; 0; 0; 0; 0; 0; 0; 0; 0; 0; 0; 0; 0; 0; 0; 0; 0; 0; 0; 0; 0; 0; 0; 0; 0; 0; 0; 0; 0; 0; 0; 0; 0; 0; 0; 0; 0; 0; 0; 0; 0; 0; 0; 0; 0; 0; 0; 0; 0; 0; 0; 0; 0; 0; 0; 0; 0.000000; 0.000000; 0.000000; 0.000000; 0.000000; 0.000000; 0.000000; 0.000000; 0.000000; 0.000000; 0.000000; 0.000000; 0.000000; 0.000000; 0.000000; 0.000000; 0.000000; 0.000000; 0.000000; 0.000000; 0.000000; 0.000000; 0.000000; 0.000000; 0.000000; 0.000000; 3279; 0
131072; 260046868;677.448824; 2060; 1980; 3068; 1671; 1692; 1655; 1664; 1764; 11231; 0000; 1706; 1672; 0000; 0000; 3758; 0000; 18907; 0000; 0120; 46.200462; 1502;  3.626433;  37.305351; -997.484375; -0.201647;  0.101900;  0.084437; -1.040839;  5.130163;  0.000000;  208.000000; -2141.000000;  0000; 0000; -9650; 0000; 0000; -02328; -02999; 000000;  0.023262; -2.304895;  0.000000; 0000; 0000; 0000; 0000; 0000; 290717696; 000; 000; 000; 000; 255; 255; 255; 255; 072; 072;  0.000000; -61.975121; 003; 003; -05;  6.468399; 000; 000; 000;  0.000000; 0000; 0000; 0000; 0000; 0212; 0.000000; 0000; 0212;  0.000000;  0.000000;  0.000000; 0; 0;  0.000000; 0.000000; 0.000000; 0.000000;  0.000000;  0.000000;  0.000000; 0;  0.004811;  0.000967; -0.341134;  0.000039;  0.000061;  0.000025;  212; 677.434877; 0045;  277.000000;  53.000000; -19546.000000; 0212; 0.000000; 0.000000; 0.000000 ; 12218; 0.000000; 0.000000; 0.000000; 0.000000; 0.000000; 0.000000; 0.000000; 0.000000; 0.000000; 0.000000; 0.000000; 0.000000; 0000; 0000; 0.942362; 0.334569; 0.004242; -0.334561; 0.942371; -0.002504; -0.004835; 0.000941; 0.999988; 0.000000; 0.000000; 0.000000; 0; 0.000000; 0.000000; 0.000000; 0.000000; -1; 88; 72; 0; 0; 0; 0; 0; 0; 0; 0; 0; 0; 0; 0; 0; 0; 0; 0; 0; 0; 0; 0; 0; 0; 0; 0; 0; 0; 0; 0; 0; 0; 0; 0; 0; 0; 0; 0; 0; 0; 0; 0; 0; 0; 0; 0; 0; 0; 0; 0; 0; 0; 0; 0; 0; 0; 0; 0; 0; 0; 0; 0; 0; 0; 0; 0; 0; 0; 0; 0; 0; 0; 0; 0; 0; 0; 0; 0; 0; 0; 0; 0; 0; 0; 0; 0; 0; 0; 0; 0; 0; 0; 0; 0; 0; 0; 0; 0; 0; 0; 0; 0; 0; 0; 0; 0; 0; 0; 0; 0; 0; 0; 0; 0; 0.000000; 0.000000; 0.000000; 0.000000; 0.000000; 0.000000; 0.000000; 0.000000; 0.000000; 0.000000; 0.000000; 0.000000; 0.000000; 0.000000; 0.000000; 0.000000; 0.000000; 0.000000; 0.000000; 0.000000; 0.000000; 0.000000; 0.000000; 0.000000; 0.000000; 0.000000; 4951; 0
131072; 260046868;677.453821; 2060; 1980; 3068; 1670; 1691; 1655; 1661; 1761; 11231; 0000; 1706; 1672; 0000; 0000; 3758; 0000; 19042; 0000; 0120; 46.199837; 1502;  3.747808;  38.182465; -997.816895; -0.326223;  0.408042;  0.084437; -1.040845;  5.130171;  0.000000;  215.000000; -2191.000000;  0000; 0000; -9650; 0000; 0000; -02328; -02999; 000000;  0.023262; -2.304895;  0.000000; 0000; 0000; 0000; 0000; 0000; 290717696; 000; 000; 000; 000; 255; 255; 255; 255; 072; 072;  0.000000; -61.975121; 003; 003; -05;  6.468399; 000; 000; 000;  0.000000; 0000; 0000; 0000; 0000; 0212; 0.000000; 0000; 0212;  0.000000;  0.000000;  0.000000; 0; 0;  0.000000; 0.000000; 0.000000; 0.000000;  0.000000;  0.000000;  0.000000; 0;  0.004811;  0.000967; -0.341134; -0.000018;  0.000052;  0.000025;  212; 677.434877; 0045;  278.000000;  52.000000; -19546.000000; 0212; 0.000000; 0.000000; 0.000000 ; 12218; 0.000000; 0.000000; 0.000000; 0.000000; 0.000000; 0.000000; 0.000000; 0.000000; 0.000000; 0.000000; 0.000000; 0.000000; 0000; 0000; 0.942361; 0.334572; 0.004280; -0.334564; 0.942370; -0.002491; -0.004867; 0.000915; 0.999988; 0.000000; 0.000000; 0.000000; 0; 0.000000; 0.000000; 0.000000; 0.000000; -1; 88; 72; 0; 0; 0; 0; 0; 0; 0; 0; 0; 0; 0; 0; 0; 0; 0; 0; 0; 0; 0; 0; 0; 0; 0; 0; 0; 0; 0; 0; 0; 0; 0; 0; 0; 0; 0; 0; 0; 0; 0; 0; 0; 0; 0; 0; 0; 0; 0; 0; 0; 0; 0; 0; 0; 0; 0; 0; 0; 0; 0; 0; 0; 0; 0; 0; 0; 0; 0; 0; 0; 0; 0; 0; 0; 0; 0; 0; 0; 0; 0; 0; 0; 0; 0; 0; 0; 0; 0; 0; 0; 0; 0; 0; 0; 0; 0; 0; 0; 0; 0; 0; 0; 0; 0; 0; 0; 0; 0; 0; 0; 0; 0; 0; 0.000000; 0.000000; 0.000000; 0.000000; 0.000000; 0.000000; 0.000000; 0.000000; 0.000000; 0.000000; 0.000000; 0.000000; 0.000000; 0.000000; 0.000000; 0.000000; 0.000000; 0.000000; 0.000000; 0.000000; 0.000000; 0.000000; 0.000000; 0.000000; 0.000000; 0.000000; 4957; 0
131072; 260046868;677.458846; 2060; 1980; 3068; 1672; 1692; 1655; 1671; 1765; 11231; 0000; 1706; 1672; 0000; 0000; 3758; 0000; 19178; 0000; 0120; 46.199211; 1502;  3.860826;  39.800156; -999.367676;  0.076495;  0.160833;  0.084437; -1.040842;  5.130179;  0.000000;  221.000000; -2280.000000;  0000; 0000; -9650; 0000; 0000; -02328; -02999; 000000;  0.023262; -2.304895;  0.000000; 0000; 0000; 0000; 0000; 0000; 290717696; 000; 000; 000; 000; 255; 255; 255; 255; 072; 072;  0.000000; -61.975121; 003; 003; -05;  6.468399; 000; 000; 000;  0.000000; 0000; 0000; 0000; 0000; 0212; 0.000000; 0000; 0212;  0.000000;  0.000000;  0.000000; 0; 0;  0.000000; 0.000000; 0.000000; 0.000000;  0.000000;  0.000000;  0.000000; 0;  0.004835;  0.000941; -0.341144; -0.000018;  0.000052;  0.000025;  212; 677.451494; 0045;  279.000000;  52.000000; -19546.000000; 0212; 0.000000; 0.000000; 0.000000 ; 12218; 0.000000; 0.000000; 0.000000; 0.000000; 0.000000; 0.000000; 0.000000; 0.000000; 0.000000; 0.000000; 0.000000; 0.000000; 0000; 0000; 0.942359; 0.334575; 0.004288; -0.334567; 0.942369; -0.002499; -0.004877; 0.000920; 0.999988; 0.000000; 0.000000; 0.000000; 0; 0.000000; 0.000000; 0.000000; 0.000000; -1; 88; 72; 0; 0; 0; 0; 0; 0; 0; 0; 0; 0; 0; 0; 0; 0; 0; 0; 0; 0; 0; 0; 0; 0; 0; 0; 0; 0; 0; 0; 0; 0; 0; 0; 0; 0; 0; 0; 0; 0; 0; 0; 0; 0; 0; 0; 0; 0; 0; 0; 0; 0; 0; 0; 0; 0; 0; 0; 0; 0; 0; 0; 0; 0; 0; 0; 0; 0; 0; 0; 0; 0; 0; 0; 0; 0; 0; 0; 0; 0; 0; 0; 0; 0; 0; 0; 0; 0; 0; 0; 0; 0; 0; 0; 0; 0; 0; 0; 0; 0; 0; 0; 0; 0; 0; 0; 0; 0; 0; 0; 0; 0; 0; 0; 0.000000; 0.000000; 0.000000; 0.000000; 0.000000; 0.000000; 0.000000; 0.000000; 0.000000; 0.000000; 0.000000; 0.000000; 0.000000; 0.000000; 0.000000; 0.000000; 0.000000; 0.000000; 0.000000; 0.000000; 0.000000; 0.000000; 0.000000; 0.000000; 0.000000; 0.000000; 4985; 0
131072; 260046868;677.463813; 2056; 1980; 3068; 1672; 1691; 1655; 1668; 1761; 11231; 0000; 1706; 1672; 0000; 0000; 3758; 0000; 19314; 0000; 0120; 46.200157; 1502;  4.056177;  40.261833; -998.783936; -0.241917;  0.296950;  0.084437; -1.040837;  5.130186;  0.000000;  232.000000; -2308.000000;  0000; 0000; -9650; 0000; 0000; -02328; -02999; 000000;  0.023262; -2.304895;  0.000000; 0000; 0000; 0000; 0000; 0000; 290717696; 000; 000; 000; 000; 255; 255; 255; 255; 072; 072;  0.000000; -61.975121; 003; 003; -05;  6.468399; 000; 000; 000;  0.000000; 0000; 0000; 0000; 0000; 0212; 0.000000; 0000; 0212;  0.000000;  0.000000;  0.000000; 0; 0;  0.000000; 0.000000; 0.000000; 0.000000;  0.000000;  0.000000;  0.000000; 0;  0.004835;  0.000941; -0.341144; -0.000018;  0.000052;  0.000025;  212; 677.451494; 0045;  280.000000;  51.000000; -19546.000000; 0212; 0.000000; 0.000000; 0.000000 ; 12218; 0.000000; 0.000000; 0.000000; 0.000000; 0.000000; 0.000000; 0.000000; 0.000000; 0.000000; 0.000000; 0.000000; 0.000000; 0000; 0000; 0.942358; 0.334578; 0.004317; -0.334570; 0.942368; -0.002484; -0.004899; 0.000897; 0.999988; 0.000000; 0.000000; 0.000000; 0; 0.000000; 0.000000; 0.000000; 0.000000; -1; 88; 72; 0; 0; 0; 0; 0; 0; 0; 0; 0; 0; 0; 0; 0; 0; 0; 0; 0; 0; 0; 0; 0; 0; 0; 0; 0; 0; 0; 0; 0; 0; 0; 0; 0; 0; 0; 0; 0; 0; 0; 0; 0; 0; 0; 0; 0; 0; 0; 0; 0; 0; 0; 0; 0; 0; 0; 0; 0; 0; 0; 0; 0; 0; 0; 0; 0; 0; 0; 0; 0; 0; 0; 0; 0; 0; 0; 0; 0; 0; 0; 0; 0; 0; 0; 0; 0; 0; 0; 0; 0; 0; 0; 0; 0; 0; 0; 0; 0; 0; 0; 0; 0; 0; 0; 0; 0; 0; 0; 0; 0; 0; 0; 0; 0.000000; 0.000000; 0.000000; 0.000000; 0.000000; 0.000000; 0.000000; 0.000000; 0.000000; 0.000000; 0.000000; 0.000000; 0.000000; 0.000000; 0.000000; 0.000000; 0.000000; 0.000000; 0.000000; 0.000000; 0.000000; 0.000000; 0.000000; 0.000000; 0.000000; 0.000000; 4927; 0
131072; 260046868;677.468798; 2060; 1980; 3068; 1671; 1692; 1655; 1667; 1762; 11231; 0000; 1706; 1672; 0000; 0000; 3758; 0000; 19449; 0000; 0120; 46.201096; 1502;  3.121032;  40.537109; -999.266357;  0.069707;  0.282067;  0.084437; -1.040830;  5.130198;  0.000000;  178.000000; -2323.000000;  0000; 0000; -9650; 0000; 0000; -02328; -02999; 000000;  0.023262; -2.304895;  0.000000; 0000; 0000; 0000; 0000; 0000; 290717696; 000; 000; 000; 000; 255; 255; 255; 255; 072; 072;  0.000000; -61.975121; 003; 003; -05;  6.468399; 000; 000; 000;  0.000000; 0000; 0000; 0000; 0000; 0212; 0.000000; 0000; 0212;  0.000000;  0.000000;  0.000000; 0; 0;  0.000000; 0.000000; 0.000000; 0.000000;  0.000000;  0.000000;  0.000000; 0;  0.004835;  0.000941; -0.341144; -0.000044;  0.000065;  0.000025;  212; 677.451494; 0045;  281.000000;  51.000000; -19546.000000; 0212; 0.000000; 0.000000; 0.000000 ; 12218; 0.000000; 0.000000; 0.000000; 0.000000; 0.000000; 0.000000; 0.000000; 0.000000; 0.000000; 0.000000; 0.000000; 0.000000; 0000; 0000; 0.942357; 0.334581; 0.004333; -0.334572; 0.942367; -0.002493; -0.004918; 0.000899; 0.999987; 0.000000; 0.000000; 0.000000; 0; 0.000000; 0.000000; 0.000000; 0.000000; -1; 88; 72; 0; 0; 0; 0; 0; 0; 0; 0; 0; 0; 0; 0; 0; 0; 0; 0; 0; 0; 0; 0; 0; 0; 0; 0; 0; 0; 0; 0; 0; 0; 0; 0; 0; 0; 0; 0; 0; 0; 0; 0; 0; 0; 0; 0; 0; 0; 0; 0; 0; 0; 0; 0; 0; 0; 0; 0; 0; 0; 0; 0; 0; 0; 0; 0; 0; 0; 0; 0; 0; 0; 0; 0; 0; 0; 0; 0; 0; 0; 0; 0; 0; 0; 0; 0; 0; 0; 0; 0; 0; 0; 0; 0; 0; 0; 0; 0; 0; 0; 0; 0; 0; 0; 0; 0; 0; 0; 0; 0; 0; 0; 0; 0; 0.000000; 0.000000; 0.000000; 0.000000; 0.000000; 0.000000; 0.000000; 0.000000; 0.000000; 0.000000; 0.000000; 0.000000; 0.000000; 0.000000; 0.000000; 0.000000; 0.000000; 0.000000; 0.000000; 0.000000; 0.000000; 0.000000; 0.000000; 0.000000; 0.000000; 0.000000; 4944; 0
131072; 260046868;677.473825; 2056; 1980; 3068; 1672; 1691; 1655; 1669; 1763; 11231; 0000; 1706; 1672; 0781; 2999; 0000; 0000; 19585; 0000; 0120; 46.202034; 1501;  1.892756;  40.407585; -998.450684;  0.226882;  0.215322;  0.084437; -1.040825;  5.130216;  0.000000;  108.000000; -2317.000000;  0000; 0000; -9650; 0000; 0000; -02328; -02999; 000000;  0.023262; -2.304895;  0.000000; 0000; 0000; 0000; 0000; 0000; 290717696; 000; 000; 000; 000; 255; 255; 255; 255; 072; 072;  0.000000; -61.975121; 003; 003; -05;  6.468399; 000; 000; 000;  0.000000; 0000; 0000; 0000; 0000; 0212; 0.000000; 0000; 0212;  0.000000;  0.000000;  0.000000; 0; 0;  0.000000; 0.000000; 0.000000; 0.000000;  0.000000;  0.000000;  0.000000; 0;  0.004899;  0.000897; -0.341153; -0.000044;  0.000065;  0.000025;  212; 677.468153; 0045;  282.000000;  52.000000; -19546.000000; 0212; 0.000000; 0.000000; 0.000000 ; 12218; 0.000000; 0.000000; 0.000000; 0.000000; 0.000000; 0.000000; 0.000000; 0.000000; 0.000000; 0.000000; 0.000000; 0.000000; 0000; 0000; 0.942356; 0.334583; 0.004336; -0.334575; 0.942366; -0.002512; -0.004927; 0.000916; 0.999987; 0.000000; 0.000000; 0.000000; 0; 0.000000; 0.000000; 0.000000; 0.000000; -1; 88; 72; 0; 0; 0; 0; 0; 0; 0; 0; 0; 0; 0; 0; 0; 0; 0; 0; 0; 0; 0; 0; 0; 0; 0; 0; 0; 0; 0; 0; 0; 0; 0; 0; 0; 0; 0; 0; 0; 0; 0; 0; 0; 0; 0; 0; 0; 0; 0; 0; 0; 0; 0; 0; 0; 0; 0; 0; 0; 0; 0; 0; 0; 0; 0; 0; 0; 0; 0; 0; 0; 0; 0; 0; 0; 0; 0; 0; 0; 0; 0; 0; 0; 0; 0; 0; 0; 0; 0; 0; 0; 0; 0; 0; 0; 0; 0; 0; 0; 0; 0; 0; 0; 0; 0; 0; 0; 0; 0; 0; 0; 0; 0; 0; 0.000000; 0.000000; 0.000000; 0.000000; 0.000000; 0.000000; 0.000000; 0.000000; 0.000000; 0.000000; 0.000000; 0.000000; 0.000000; 0.000000; 0.000000; 0.000000; 0.000000; 0.000000; 0.000000; 0.000000; 0.000000; 0.000000; 0.000000; 0.000000; 0.000000; 0.000000; 4990; 0
131072; 260046868;677.478798; 2056; 1980; 3068; 1672; 1692; 1655; 1669; 1764; 11231; 0000; 1706; 1672; 0000; 0000; 3758; 0000; 19721; 0000; 0120; 46.202965; 1501;  1.376556;  39.414612; -998.493408;  0.016019;  0.259633;  0.084437; -1.040824;  5.130237;  0.000000;  78.000000; -2260.000000;  0000; 0000; -9650; 0000; 0000; -02328; -02999; 000000;  0.023262; -2.304895;  0.000000; 0000; 0000; 0000; 0000; 0000; 290717696; 000; 000; 000; 000; 255; 255; 255; 255; 072; 072;  0.000000; -61.975121; 003; 003; -05;  6.468399; 000; 000; 000;  0.000000; 0000; 0000; 0000; 0000; 0212; 0.000000; 0000; 0212;  0.000000;  0.000000;  0.000000; 0; 0;  0.000000; 0.000000; 0.000000; 0.000000;  0.000000;  0.000000;  0.000000; 0;  0.004899;  0.000897; -0.341153; -0.000044;  0.000065;  0.000025;  212; 677.468153; 0045;  282.000000;  52.000000; -19547.000000; 0212; 0.000000; 0.000000; 0.000000 ; 12219; 0.000000; 0.000000; 0.000000; 0.000000; 0.000000; 0.000000; 0.000000; 0.000000; 0.000000; 0.000000; 0.000000; 0.000000; 0000; 0000; 0.942355; 0.334586; 0.004347; -0.334578; 0.942365; -0.002517; -0.004938; 0.000917; 0.999987; 0.000000; 0.000000; 0.000000; 0; 0.000000; 0.000000; 0.000000; 0.000000; -1; 88; 72; 0; 0; 0; 0; 0; 0; 0; 0; 0; 0; 0; 0; 0; 0; 0; 0; 0; 0; 0; 0; 0; 0; 0; 0; 0; 0; 0; 0; 0; 0; 0; 0; 0; 0; 0; 0; 0; 0; 0; 0; 0; 0; 0; 0; 0; 0; 0; 0; 0; 0; 0; 0; 0; 0; 0; 0; 0; 0; 0; 0; 0; 0; 0; 0; 0; 0; 0; 0; 0; 0; 0; 0; 0; 0; 0; 0; 0; 0; 0; 0; 0; 0; 0; 0; 0; 0; 0; 0; 0; 0; 0; 0; 0; 0; 0; 0; 0; 0; 0; 0; 0; 0; 0; 0; 0; 0; 0; 0; 0; 0; 0; 0; 0.000000; 0.000000; 0.000000; 0.000000; 0.000000; 0.000000; 0.000000; 0.000000; 0.000000; 0.000000; 0.000000; 0.000000; 0.000000; 0.000000; 0.000000; 0.000000; 0.000000; 0.000000; 0.000000; 0.000000; 0.000000; 0.000000; 0.000000; 0.000000; 0.000000; 0.000000; 4932; 0
131072; 260046868;677.483754; 2056; 1980; 3068; 1671; 1692; 1655; 1663; 1767; 11231; 0000; 1706; 1672; 0000; 0000; 3758; 0000; 19859; 0000; 0120; 46.202332; 1502;  1.033968;  39.874031; -998.934326;  0.107370;  0.129835;  0.084437; -1.040821;  5.130260;  0.000000;  59.000000; -2285.000000;  0000; 0000; -9650; 0000; 0000; -02328; -02999; 000000;  0.023262; -2.304895;  0.000000; 0000; 0000; 0000; 0000; 0000; 290717696; 000; 000; 000; 000; 255; 255; 255; 255; 072; 072;  0.000000; -61.975121; 003; 003; -05;  6.468399; 000; 000; 000;  0.000000; 0000; 0000; 0000; 0000; 0212; 0.000000; 0000; 0212;  0.000000;  0.000000;  0.000000; 0; 0;  0.000000; 0.000000; 0.000000; 0.000000;  0.000000;  0.000000;  0.000000; 0;  0.004899;  0.000897; -0.341153; -0.000044;  0.000065;  0.000025;  212; 677.468153; 0045;  282.000000;  52.000000; -19547.000000; 0212; 0.000000; 0.000000; 0.000000 ; 12219; 0.000000; 0.000000; 0.000000; 0.000000; 0.000000; 0.000000; 0.000000; 0.000000; 0.000000; 0.000000; 0.000000; 0.000000; 0000; 0000; 0.942354; 0.334589; 0.004344; -0.334581; 0.942364; -0.002524; -0.004938; 0.000925; 0.999987; 0.000000; 0.000000; 0.000000; 0; 0.000000; 0.000000; 0.000000; 0.000000; -1; 88; 72; 0; 0; 0; 0; 0; 0; 0; 0; 0; 0; 0; 0; 0; 0; 0; 0; 0; 0; 0; 0; 0; 0; 0; 0; 0; 0; 0; 0; 0; 0; 0; 0; 0; 0; 0; 0; 0; 0; 0; 0; 0; 0; 0; 0; 0; 0; 0; 0; 0; 0; 0; 0; 0; 0; 0; 0; 0; 0; 0; 0; 0; 0; 0; 0; 0; 0; 0; 0; 0; 0; 0; 0; 0; 0; 0; 0; 0; 0; 0; 0; 0; 0; 0; 0; 0; 0; 0; 0; 0; 0; 0; 0; 0; 0; 0; 0; 0; 0; 0; 0; 0; 0; 0; 0; 0; 0; 0; 0; 0; 0; 0; 0; 0.000000; 0.000000; 0.000000; 0.000000; 0.000000; 0.000000; 0.000000; 0.000000; 0.000000; 0.000000; 0.000000; 0.000000; 0.000000; 0.000000; 0.000000; 0.000000; 0.000000; 0.000000; 0.000000; 0.000000; 0.000000; 0.000000; 0.000000; 0.000000; 0.000000; 0.000000; 4917; 0
131072; 260046868;677.488784; 2056; 1980; 3068; 1672; 1692; 1655; 1668; 1764; 11231; 0000; 1706; 1672; 0000; 0000; 3758; 0000; 19994; 0000; 0120; 46.203262; 1502; -0.267323;  40.249420; -998.885498;  0.140702;  0.150332;  0.084437; -1.040816;  5.130291;  0.000000; -15.000000; -2307.000000;  0000; 0000; -9650; 0000; 0000; -02328; -02999; 000000;  0.023262; -2.304895;  0.000000; 0000; 0000; 0000; 0000; 0000; 290717696; 000; 000; 000; 000; 255; 255; 255; 255; 072; 072;  0.000000; -61.975121; 003; 003; -05;  6.468399; 000; 000; 000;  0.000000; 0000; 0000; 0000; 0000; 0212; 0.000000; 0000; 0212;  0.000000;  0.000000;  0.000000; 0; 0;  0.000000; 0.000000; 0.000000; 0.000000;  0.000000;  0.000000;  0.000000; 0;  0.004938;  0.000925; -0.341165;  0.000005;  0.000077;  0.000025;  212; 677.484747; 0045;  282.000000;  53.000000; -19547.000000; 0212; 0.000000; 0.000000; 0.000000 ; 12219; 0.000000; 0.000000; 0.000000; 0.000000; 0.000000; 0.000000; 0.000000; 0.000000; 0.000000; 0.000000; 0.000000; 0.000000; 0000; 0000; 0.942353; 0.334592; 0.004338; -0.334584; 0.942363; -0.002532; -0.004935; 0.000935; 0.999987; 0.000000; 0.000000; 0.000000; 0; 0.000000; 0.000000; 0.000000; 0.000000; -1; 88; 72; 0; 0; 0; 0; 0; 0; 0; 0; 0; 0; 0; 0; 0; 0; 0; 0; 0; 0; 0; 0; 0; 0; 0; 0; 0; 0; 0; 0; 0; 0; 0; 0; 0; 0; 0; 0; 0; 0; 0; 0; 0; 0; 0; 0; 0; 0; 0; 0; 0; 0; 0; 0; 0; 0; 0; 0; 0; 0; 0; 0; 0; 0; 0; 0; 0; 0; 0; 0; 0; 0; 0; 0; 0; 0; 0; 0; 0; 0; 0; 0; 0; 0; 0; 0; 0; 0; 0; 0; 0; 0; 0; 0; 0; 0; 0; 0; 0; 0; 0; 0; 0; 0; 0; 0; 0; 0; 0; 0; 0; 0; 0; 0; 0.000000; 0.000000; 0.000000; 0.000000; 0.000000; 0.000000; 0.000000; 0.000000; 0.000000; 0.000000; 0.000000; 0.000000; 0.000000; 0.000000; 0.000000; 0.000000; 0.000000; 0.000000; 0.000000; 0.000000; 0.000000; 0.000000; 0.000000; 0.000000; 0.000000; 0.000000; 4991; 0
131072; 260046868;677.493762; 2056; 1980; 3068; 1671; 1691; 1655; 1664; 1762; 11231; 0000; 1706; 1673; 0000; 0000; 3758; 0000; 20130; 0000; 0120; 46.204193; 1500;  1.175326;  40.041046; -998.752441; -0.171523;  0.103026;  0.084437; -1.040812;  5.130313;  0.000000;  67.000000; -2295.000000;  0000; 0000; -9650; 0000; 0000; -02328; -02999; 000000;  0.023262; -2.304895;  0.000000; 0000; 0000; 0000; 0000; 0000; 290717696; 000; 000; 000; 000; 255; 255; 255; 255; 072; 072;  0.000000; -61.975121; 003; 003; -05;  6.468399; 000; 000; 000;  0.000000; 0000; 0000; 0000; 0000; 0212; 0.000000; 0000; 0212;  0.000000;  0.000000;  0.000000; 0; 0;  0.000000; 0.000000; 0.000000; 0.000000;  0.000000;  0.000000;  0.000000; 0;  0.004938;  0.000925; -0.341165;  0.000005;  0.000077;  0.000025;  212; 677.484747; 0045;  282.000000;  52.000000; -19547.000000; 0212; 0.000000; 0.000000; 0.000000 ; 12219; 0.000000; 0.000000; 0.000000; 0.000000; 0.000000; 0.000000; 0.000000; 0.000000; 0.000000; 0.000000; 0.000000; 0.000000; 0000; 0000; 0.942352; 0.334595; 0.004341; -0.334587; 0.942362; -0.002515; -0.004932; 0.000917; 0.999987; 0.000000; 0.000000; 0.000000; 0; 0.000000; 0.000000; 0.000000; 0.000000; -1; 88; 72; 0; 0; 0; 0; 0; 0; 0; 0; 0; 0; 0; 0; 0; 0; 0; 0; 0; 0; 0; 0; 0; 0; 0; 0; 0; 0; 0; 0; 0; 0; 0; 0; 0; 0; 0; 0; 0; 0; 0; 0; 0; 0; 0; 0; 0; 0; 0; 0; 0; 0; 0; 0; 0; 0; 0; 0; 0; 0; 0; 0; 0; 0; 0; 0; 0; 0; 0; 0; 0; 0; 0; 0; 0; 0; 0; 0; 0; 0; 0; 0; 0; 0; 0; 0; 0; 0; 0; 0; 0; 0; 0; 0; 0; 0; 0; 0; 0; 0; 0; 0; 0; 0; 0; 0; 0; 0; 0; 0; 0; 0; 0; 0; 0.000000; 0.000000; 0.000000; 0.000000; 0.000000; 0.000000; 0.000000; 0.000000; 0.000000; 0.000000; 0.000000; 0.000000; 0.000000; 0.000000; 0.000000; 0.000000; 0.000000; 0.000000; 0.000000; 0.000000; 0.000000; 0.000000; 0.000000; 0.000000; 0.000000; 0.000000; 4939; 0
131072; 260046868;677.498732; 2056; 1980; 3068; 1671; 1691; 1655; 1663; 1760; 11231; 0000; 1706; 1672; 0000; 0000; 3758; 0000; 20266; 0000; 0120; 46.205124; 1501;  0.091418;  40.028770; -998.804932; -0.003622;  0.326481;  0.084437; -1.040808;  5.130341;  0.000000;  5.000000; -2294.000000;  0000; 0000; -9650; 0000; 0000; -02328; -02999; 000000;  0.023262; -2.304895;  0.000000; 0000; 0000; 0000; 0000; 0000; 290717696; 000; 000; 000; 000; 255; 255; 255; 255; 072; 072;  0.000000; -61.975121; 003; 003; -05;  6.468399; 000; 000; 000;  0.000000; 0000; 0000; 0000; 0000; 0212; 0.000000; 0000; 0212;  0.000000;  0.000000;  0.000000; 0; 0;  0.000000; 0.000000; 0.000000; 0.000000;  0.000000;  0.000000;  0.000000; 0;  0.004938;  0.000925; -0.341165;  0.000005;  0.000077;  0.000025;  212; 677.484747; 0045;  283.000000;  52.000000; -19547.000000; 0212; 0.000000; 0.000000; 0.000000 ; 12219; 0.000000; 0.000000; 0.000000; 0.000000; 0.000000; 0.000000; 0.000000; 0.000000; 0.000000; 0.000000; 0.000000; 0.000000; 0000; 0000; 0.942351; 0.334598; 0.004355; -0.334590; 0.942361; -0.002517; -0.004946; 0.000915; 0.999987; 0.000000; 0.000000; 0.000000; 0; 0.000000; 0.000000; 0.000000; 0.000000; -1; 88; 72; 0; 0; 0; 0; 0; 0; 0; 0; 0; 0; 0; 0; 0; 0; 0; 0; 0; 0; 0; 0; 0; 0; 0; 0; 0; 0; 0; 0; 0; 0; 0; 0; 0; 0; 0; 0; 0; 0; 0; 0; 0; 0; 0; 0; 0; 0; 0; 0; 0; 0; 0; 0; 0; 0; 0; 0; 0; 0; 0; 0; 0; 0; 0; 0; 0; 0; 0; 0; 0; 0; 0; 0; 0; 0; 0; 0; 0; 0; 0; 0; 0; 0; 0; 0; 0; 0; 0; 0; 0; 0; 0; 0; 0; 0; 0; 0; 0; 0; 0; 0; 0; 0; 0; 0; 0; 0; 0; 0; 0; 0; 0; 0; 0.000000; 0.000000; 0.000000; 0.000000; 0.000000; 0.000000; 0.000000; 0.000000; 0.000000; 0.000000; 0.000000; 0.000000; 0.000000; 0.000000; 0.000000; 0.000000; 0.000000; 0.000000; 0.000000; 0.000000; 0.000000; 0.000000; 0.000000; 0.000000; 0.000000; 0.000000; 4931; 0
131072; 260046868;677.505054; 2056; 1980; 3068; 1671; 1691; 1655; 1666; 1763; 11231; 0000; 1706; 1672; 0000; 0000; 3758; 0000; 20401; 0000; 0120; 46.204483; 1502;  0.610113;  40.008438; -998.744385; -0.119478;  0.418229;  0.084437; -1.040804;  5.130367;  0.000000;  34.000000; -2293.000000;  0000; 0000; -9650; 0000; 0000; -02328; -02999; 000000;  0.023262; -2.304895;  0.000000; 0000; 0000; 0000; 0000; 0000; 290717696; 000; 000; 000; 000; 255; 255; 255; 255; 072; 072;  0.000000; -61.975121; 003; 003; -05;  6.468399; 000; 000; 000;  0.000000; 0000; 0000; 0000; 0000; 0212; 0.000000; 0000; 0212;  0.000000;  0.000000;  0.000000; 0; 0;  0.000000; 0.000000; 0.000000; 0.000000;  0.000000;  0.000000;  0.000000; 0;  0.004946;  0.000915; -0.341174;  0.000007;  0.000037;  0.000025;  212; 677.501364; 0045;  284.000000;  51.000000; -19548.000000; 0212; 0.000000; 0.000000; 0.000000 ; 12219; 0.000000; 0.000000; 0.000000; 0.000000; 0.000000; 0.000000; 0.000000; 0.000000; 0.000000; 0.000000; 0.000000; 0.000000; 0000; 0000; 0.942350; 0.334601; 0.004380; -0.334593; 0.942360; -0.002513; -0.004969; 0.000903; 0.999987; 0.000000; 0.000000; 0.000000; 0; 0.000000; 0.000000; 0.000000; 0.000000; -1; 88; 72; 0; 0; 0; 0; 0; 0; 0; 0; 0; 0; 0; 0; 0; 0; 0; 0; 0; 0; 0; 0; 0; 0; 0; 0; 0; 0; 0; 0; 0; 0; 0; 0; 0; 0; 0; 0; 0; 0; 0; 0; 0; 0; 0; 0; 0; 0; 0; 0; 0; 0; 0; 0; 0; 0; 0; 0; 0; 0; 0; 0; 0; 0; 0; 0; 0; 0; 0; 0; 0; 0; 0; 0; 0; 0; 0; 0; 0; 0; 0; 0; 0; 0; 0; 0; 0; 0; 0; 0; 0; 0; 0; 0; 0; 0; 0; 0; 0; 0; 0; 0; 0; 0; 0; 0; 0; 0; 0; 0; 0; 0; 0; 0; 0.000000; 0.000000; 0.000000; 0.000000; 0.000000; 0.000000; 0.000000; 0.000000; 0.000000; 0.000000; 0.000000; 0.000000; 0.000000; 0.000000; 0.000000; 0.000000; 0.000000; 0.000000; 0.000000; 0.000000; 0.000000; 0.000000; 0.000000; 0.000000; 0.000000; 0.000000; 6284; 0
131072; 260046868;677.508802; 2056; 1980; 3068; 1672; 1692; 1655; 1668; 1763; 11231; 0000; 1705; 1672; 0000; 0000; 3758; 0000; 20537; 0000; 0120; 46.203842; 1501;  0.857025;  39.953133; -998.775391; -0.177619;  0.398700;  0.084437; -1.040801;  5.130391;  0.000000;  49.000000; -2290.000000;  0000; 0000; -9650; 0000; 0000; -02328; -02999; 000000;  0.023262; -2.304895;  0.000000; 0000; 0000; 0000; 0000; 0000; 290717696; 000; 000; 000; 000; 255; 255; 255; 255; 072; 072;  0.000000; -61.975121; 003; 003; -05;  6.468399; 000; 000; 000;  0.000000; 0000; 0000; 0000; 0000; 0212; 0.000000; 0000; 0212;  0.000000;  0.000000;  0.000000; 0; 0;  0.000000; 0.000000; 0.000000; 0.000000;  0.000000;  0.000000;  0.000000; 0;  0.004946;  0.000915; -0.341174;  0.000007;  0.000037;  0.000025;  212; 677.501364; 0045;  285.000000;  50.000000; -19548.000000; 0212; 0.000000; 0.000000; 0.000000 ; 12219; 0.000000; 0.000000; 0.000000; 0.000000; 0.000000; 0.000000; 0.000000; 0.000000; 0.000000; 0.000000; 0.000000; 0.000000; 0000; 0000; 0.942349; 0.334604; 0.004407; -0.334595; 0.942359; -0.002504; -0.004991; 0.000885; 0.999987; 0.000000; 0.000000; 0.000000; 0; 0.000000; 0.000000; 0.000000; 0.000000; -1; 88; 72; 0; 0; 0; 0; 0; 0; 0; 0; 0; 0; 0; 0; 0; 0; 0; 0; 0; 0; 0; 0; 0; 0; 0; 0; 0; 0; 0; 0; 0; 0; 0; 0; 0; 0; 0; 0; 0; 0; 0; 0; 0; 0; 0; 0; 0; 0; 0; 0; 0; 0; 0; 0; 0; 0; 0; 0; 0; 0; 0; 0; 0; 0; 0; 0; 0; 0; 0; 0; 0; 0; 0; 0; 0; 0; 0; 0; 0; 0; 0; 0; 0; 0; 0; 0; 0; 0; 0; 0; 0; 0; 0; 0; 0; 0; 0; 0; 0; 0; 0; 0; 0; 0; 0; 0; 0; 0; 0; 0; 0; 0; 0; 0; 0.000000; 0.000000; 0.000000; 0.000000; 0.000000; 0.000000; 0.000000; 0.000000; 0.000000; 0.000000; 0.000000; 0.000000; 0.000000; 0.000000; 0.000000; 0.000000; 0.000000; 0.000000; 0.000000; 0.000000; 0.000000; 0.000000; 0.000000; 0.000000; 0.000000; 0.000000; 3708; 0
131072; 260046868;677.513776; 2056; 1984; 3068; 1672; 1691; 1654; 1669; 1762; 11231; 0000; 1706; 1672; 0778; 3001; 0000; 0003; 20675; 0000; 0120; 46.203209; 1501;  0.461119;  38.608994; -998.911377;  0.132226;  0.384012;  0.160316; -1.040805;  5.130418;  0.000000;  26.000000; -2213.000000;  0000; 0000; -9650; 0000; 0000; -02328; -02999; 000000;  0.023262; -2.304895;  0.000000; 0000; 0000; 0000; 0000; 0000; 290717696; 000; 000; 000; 000; 255; 255; 255; 255; 072; 072;  0.000000; -61.975121; 003; 003; -05;  6.468399; 000; 000; 000;  0.000000; 0000; 0000; 0000; 0000; 0211; 0.000000; 0000; 0211;  0.000000;  0.000000;  0.000000; 0; 0;  0.000000; 0.000000; 0.000000; 0.000000;  0.000000;  0.000000;  0.000000; 0;  0.004946;  0.000915; -0.341174;  0.000007;  0.000037;  0.000025;  212; 677.501364; 0045;  287.000000;  51.000000; -19547.000000; 0211; 0.000000; 0.000000; 0.000000 ; 12219; 0.000000; 0.000000; 0.000000; 0.000000; 0.000000; 0.000000; 0.000000; 0.000000; 0.000000; 0.000000; 0.000000; 0.000000; 0000; 0000; 0.942350; 0.334600; 0.004421; -0.334592; 0.942360; -0.002524; -0.005010; 0.000899; 0.999987; 0.000000; 0.000000; 0.000000; 0; 0.000000; 0.000000; 0.000000; 0.000000; -1; 88; 72; 0; 0; 0; 0; 0; 0; 0; 0; 0; 0; 0; 0; 0; 0; 0; 0; 0; 0; 0; 0; 0; 0; 0; 0; 0; 0; 0; 0; 0; 0; 0; 0; 0; 0; 0; 0; 0; 0; 0; 0; 0; 0; 0; 0; 0; 0; 0; 0; 0; 0; 0; 0; 0; 0; 0; 0; 0; 0; 0; 0; 0; 0; 0; 0; 0; 0; 0; 0; 0; 0; 0; 0; 0; 0; 0; 0; 0; 0; 0; 0; 0; 0; 0; 0; 0; 0; 0; 0; 0; 0; 0; 0; 0; 0; 0; 0; 0; 0; 0; 0; 0; 0; 0; 0; 0; 0; 0; 0; 0; 0; 0; 0; 0.000000; 0.000000; 0.000000; 0.000000; 0.000000; 0.000000; 0.000000; 0.000000; 0.000000; 0.000000; 0.000000; 0.000000; 0.000000; 0.000000; 0.000000; 0.000000; 0.000000; 0.000000; 0.000000; 0.000000; 0.000000; 0.000000; 0.000000; 0.000000; 0.000000; 0.000000; 4934; 0
131072; 260046868;677.518750; 2056; 1980; 3064; 1672; 1692; 1655; 1668; 1765; 11231; 0000; 1706; 1672; 0000; 0000; 3758; 0000; 20810; 0000; 0120; 46.202576; 1501;  0.457325;  39.085709; -997.419922;  0.178452;  0.157655;  0.134103; -1.040806;  5.130445;  0.000000;  26.000000; -2244.000000;  0000; 0000; -9650; 0000; 0000; -02328; -02999; 000000;  0.023262; -2.304895;  0.000000; 0000; 0000; 0000; 0000; 0000; 290717696; 000; 000; 000; 000; 255; 255; 255; 255; 072; 072;  0.000000; -61.975121; 003; 003; -05;  6.468399; 000; 000; 000;  0.000000; 0000; 0000; 0000; 0000; 0211; 0.000000; 0000; 0211;  0.000000;  0.000000;  0.000000; 0; 0;  0.000000; 0.000000; 0.000000; 0.000000;  0.000000;  0.000000;  0.000000; 0;  0.004946;  0.000915; -0.341174; -0.000029;  0.000111;  0.000025;  212; 677.501364; 0045;  287.000000;  52.000000; -19547.000000; 0211; 0.000000; 0.000000; 0.000000 ; 12219; 0.000000; 0.000000; 0.000000; 0.000000; 0.000000; 0.000000; 0.000000; 0.000000; 0.000000; 0.000000; 0.000000; 0.000000; 0000; 0000; 0.942350; 0.334599; 0.004415; -0.334591; 0.942360; -0.002539; -0.005010; 0.000915; 0.999987; 0.000000; 0.000000; 0.000000; 0; 0.000000; 0.000000; 0.000000; 0.000000; -1; 88; 72; 0; 0; 0; 0; 0; 0; 0; 0; 0; 0; 0; 0; 0; 0; 0; 0; 0; 0; 0; 0; 0; 0; 0; 0; 0; 0; 0; 0; 0; 0; 0; 0; 0; 0; 0; 0; 0; 0; 0; 0; 0; 0; 0; 0; 0; 0; 0; 0; 0; 0; 0; 0; 0; 0; 0; 0; 0; 0; 0; 0; 0; 0; 0; 0; 0; 0; 0; 0; 0; 0; 0; 0; 0; 0; 0; 0; 0; 0; 0; 0; 0; 0; 0; 0; 0; 0; 0; 0; 0; 0; 0; 0; 0; 0; 0; 0; 0; 0; 0; 0; 0; 0; 0; 0; 0; 0; 0; 0; 0; 0; 0; 0; 0.000000; 0.000000; 0.000000; 0.000000; 0.000000; 0.000000; 0.000000; 0.000000; 0.000000; 0.000000; 0.000000; 0.000000; 0.000000; 0.000000; 0.000000; 0.000000; 0.000000; 0.000000; 0.000000; 0.000000; 0.000000; 0.000000; 0.000000; 0.000000; 0.000000; 0.000000; 4935; 0
131072; 260046868;677.523770; 2056; 1984; 3068; 1670; 1692; 1655; 1661; 1763; 11231; 0000; 1706; 1672; 0000; 0000; 3758; 0000; 20946; 0000; 0120; 46.201942; 1501;  0.670350;  36.980888; -998.024414; -0.005684;  0.096566;  0.167456; -1.040819;  5.130470;  0.000000;  38.000000; -2122.000000;  0000; 0000; -9650; 0000; 0000; -02328; -02999; 000000;  0.023262; -2.304895;  0.000000; 0000; 0000; 0000; 0000; 0000; 290717696; 000; 000; 000; 000; 255; 255; 255; 255; 072; 072;  0.000000; -61.975121; 003; 003; -05;  6.468399; 000; 000; 000;  0.000000; 0000; 0000; 0000; 0000; 0211; 0.000000; 0000; 0211;  0.000000;  0.000000;  0.000000; 0; 0;  0.000000; 0.000000; 0.000000; 0.000000;  0.000000;  0.000000;  0.000000; 0;  0.005011;  0.000899; -0.341177; -0.000029;  0.000111;  0.000025;  211; 677.518009; 0045;  286.000000;  52.000000; -19547.000000; 0211; 0.000000; 0.000000; 0.000000 ; 12219; 0.000000; 0.000000; 0.000000; 0.000000; 0.000000; 0.000000; 0.000000; 0.000000; 0.000000; 0.000000; 0.000000; 0.000000; 0000; 0000; 0.942352; 0.334595; 0.004409; -0.334587; 0.942361; -0.002543; -0.005005; 0.000921; 0.999987; 0.000000; 0.000000; 0.000000; 0; 0.000000; 0.000000; 0.000000; 0.000000; -1; 88; 72; 0; 0; 0; 0; 0; 0; 0; 0; 0; 0; 0; 0; 0; 0; 0; 0; 0; 0; 0; 0; 0; 0; 0; 0; 0; 0; 0; 0; 0; 0; 0; 0; 0; 0; 0; 0; 0; 0; 0; 0; 0; 0; 0; 0; 0; 0; 0; 0; 0; 0; 0; 0; 0; 0; 0; 0; 0; 0; 0; 0; 0; 0; 0; 0; 0; 0; 0; 0; 0; 0; 0; 0; 0; 0; 0; 0; 0; 0; 0; 0; 0; 0; 0; 0; 0; 0; 0; 0; 0; 0; 0; 0; 0; 0; 0; 0; 0; 0; 0; 0; 0; 0; 0; 0; 0; 0; 0; 0; 0; 0; 0; 0; 0.000000; 0.000000; 0.000000; 0.000000; 0.000000; 0.000000; 0.000000; 0.000000; 0.000000; 0.000000; 0.000000; 0.000000; 0.000000; 0.000000; 0.000000; 0.000000; 0.000000; 0.000000; 0.000000; 0.000000; 0.000000; 0.000000; 0.000000; 0.000000; 0.000000; 0.000000; 4982; 0
131072; 260046868;677.528735; 2056; 1984; 3064; 1671; 1691; 1655; 1665; 1761; 11231; 0000; 1706; 1672; 0000; 0000; 3758; 0000; 21082; 0000; 0120; 46.201309; 1502;  0.458149;  36.826797; -995.999023; -0.079368;  0.269513;  0.124124; -1.040832;  5.130497;  0.000000;  26.000000; -2117.000000;  0000; 0000; -9650; 0000; 0000; -02328; -02999; 000000;  0.023262; -2.304895;  0.000000; 0000; 0000; 0000; 0000; 0000; 290717696; 000; 000; 000; 000; 255; 255; 255; 255; 072; 072;  0.000000; -61.975121; 003; 003; -05;  6.468399; 000; 000; 000;  0.000000; 0000; 0000; 0000; 0000; 0211; 0.000000; 0000; 0211;  0.000000;  0.000000;  0.000000; 0; 0;  0.000000; 0.000000; 0.000000; 0.000000;  0.000000;  0.000000;  0.000000; 0;  0.005011;  0.000899; -0.341177; -0.000029;  0.000111;  0.000025;  211; 677.518009; 0045;  287.000000;  52.000000; -19547.000000; 0211; 0.000000; 0.000000; 0.000000 ; 12220; 0.000000; 0.000000; 0.000000; 0.000000; 0.000000; 0.000000; 0.000000; 0.000000; 0.000000; 0.000000; 0.000000; 0.000000; 0000; 0000; 0.942352; 0.334595; 0.004417; -0.334586; 0.942362; -0.002546; -0.005015; 0.000921; 0.999987; 0.000000; 0.000000; 0.000000; 0; 0.000000; 0.000000; 0.000000; 0.000000; -1; 88; 72; 0; 0; 0; 0; 0; 0; 0; 0; 0; 0; 0; 0; 0; 0; 0; 0; 0; 0; 0; 0; 0; 0; 0; 0; 0; 0; 0; 0; 0; 0; 0; 0; 0; 0; 0; 0; 0; 0; 0; 0; 0; 0; 0; 0; 0; 0; 0; 0; 0; 0; 0; 0; 0; 0; 0; 0; 0; 0; 0; 0; 0; 0; 0; 0; 0; 0; 0; 0; 0; 0; 0; 0; 0; 0; 0; 0; 0; 0; 0; 0; 0; 0; 0; 0; 0; 0; 0; 0; 0; 0; 0; 0; 0; 0; 0; 0; 0; 0; 0; 0; 0; 0; 0; 0; 0; 0; 0; 0; 0; 0; 0; 0; 0.000000; 0.000000; 0.000000; 0.000000; 0.000000; 0.000000; 0.000000; 0.000000; 0.000000; 0.000000; 0.000000; 0.000000; 0.000000; 0.000000; 0.000000; 0.000000; 0.000000; 0.000000; 0.000000; 0.000000; 0.000000; 0.000000; 0.000000; 0.000000; 0.000000; 0.000000; 4924; 0
131072; 260046868;677.533700; 2056; 1980; 3064; 1671; 1692; 1655; 1663; 1763; 11231; 0000; 1706; 1672; 0000; 0000; 3758; 0000; 21217; 0000; 0120; 46.200684; 1501;  0.481087;  38.192375; -995.792969; -0.341382;  0.079833;  0.044926; -1.040838;  5.130523;  0.000000;  27.000000; -2196.000000;  0000; 0000; -9650; 0000; 0000; -02328; -02999; 000000;  0.023262; -2.304895;  0.000000; 0000; 0000; 0000; 0000; 0000; 290717696; 000; 000; 000; 000; 255; 255; 255; 255; 072; 072;  0.000000; -61.975121; 003; 003; -05;  6.468399; 000; 000; 000;  0.000000; 0000; 0000; 0000; 0000; 0211; 0.000000; 0000; 0211;  0.000000;  0.000000;  0.000000; 0; 0;  0.000000; 0.000000; 0.000000; 0.000000;  0.000000;  0.000000;  0.000000; 0;  0.005011;  0.000899; -0.341177; -0.000029;  0.000111;  0.000025;  211; 677.518009; 0045;  286.000000;  51.000000; -19548.000000; 0211; 0.000000; 0.000000; 0.000000 ; 12220; 0.000000; 0.000000; 0.000000; 0.000000; 0.000000; 0.000000; 0.000000; 0.000000; 0.000000; 0.000000; 0.000000; 0.000000; 0000; 0000; 0.942350; 0.334601; 0.004420; -0.334593; 0.942360; -0.002519; -0.005008; 0.000895; 0.999987; 0.000000; 0.000000; 0.000000; 0; 0.000000; 0.000000; 0.000000; 0.000000; -1; 88; 72; 0; 0; 0; 0; 0; 0; 0; 0; 0; 0; 0; 0; 0; 0; 0; 0; 0; 0; 0; 0; 0; 0; 0; 0; 0; 0; 0; 0; 0; 0; 0; 0; 0; 0; 0; 0; 0; 0; 0; 0; 0; 0; 0; 0; 0; 0; 0; 0; 0; 0; 0; 0; 0; 0; 0; 0; 0; 0; 0; 0; 0; 0; 0; 0; 0; 0; 0; 0; 0; 0; 0; 0; 0; 0; 0; 0; 0; 0; 0; 0; 0; 0; 0; 0; 0; 0; 0; 0; 0; 0; 0; 0; 0; 0; 0; 0; 0; 0; 0; 0; 0; 0; 0; 0; 0; 0; 0; 0; 0; 0; 0; 0; 0.000000; 0.000000; 0.000000; 0.000000; 0.000000; 0.000000; 0.000000; 0.000000; 0.000000; 0.000000; 0.000000; 0.000000; 0.000000; 0.000000; 0.000000; 0.000000; 0.000000; 0.000000; 0.000000; 0.000000; 0.000000; 0.000000; 0.000000; 0.000000; 0.000000; 0.000000; 4925; 0
131072; 260046868;677.538703; 2056; 1984; 3064; 1671; 1692; 1655; 1665; 1763; 11231; 0000; 1706; 1672; 0000; 0000; 3758; 0000; 21353; 0000; 0120; 46.201622; 1501;  0.540429;  36.032692; -995.854004; -0.385859;  0.271659;  0.092977; -1.040856;  5.130549;  0.000000;  31.000000; -2072.000000;  0000; 0000; -9650; 0000; 0000; -02328; -02999; 000000;  0.023262; -2.304895;  0.000000; 0000; 0000; 0000; 0000; 0000; 290717696; 000; 000; 000; 000; 255; 255; 255; 255; 072; 072;  0.000000; -61.975121; 003; 003; -05;  6.468399; 000; 000; 000;  0.000000; 0000; 0000; 0000; 0000; 0211; 0.000000; 0000; 0211;  0.000000;  0.000000;  0.000000; 0; 0;  0.000000; 0.000000; 0.000000; 0.000000;  0.000000;  0.000000;  0.000000; 0;  0.005008;  0.000895; -0.341177;  0.000016;  0.000066;  0.000042;  211; 677.534617; 0045;  287.000000;  49.000000; -19548.000000; 0211; 0.000000; 0.000000; 0.000000 ; 12220; 0.000000; 0.000000; 0.000000; 0.000000; 0.000000; 0.000000; 0.000000; 0.000000; 0.000000; 0.000000; 0.000000; 0.000000; 0000; 0000; 0.942349; 0.334603; 0.004437; -0.334595; 0.942359; -0.002499; -0.005018; 0.000870; 0.999987; 0.000000; 0.000000; 0.000000; 0; 0.000000; 0.000000; 0.000000; 0.000000; -1; 88; 72; 0; 0; 0; 0; 0; 0; 0; 0; 0; 0; 0; 0; 0; 0; 0; 0; 0; 0; 0; 0; 0; 0; 0; 0; 0; 0; 0; 0; 0; 0; 0; 0; 0; 0; 0; 0; 0; 0; 0; 0; 0; 0; 0; 0; 0; 0; 0; 0; 0; 0; 0; 0; 0; 0; 0; 0; 0; 0; 0; 0; 0; 0; 0; 0; 0; 0; 0; 0; 0; 0; 0; 0; 0; 0; 0; 0; 0; 0; 0; 0; 0; 0; 0; 0; 0; 0; 0; 0; 0; 0; 0; 0; 0; 0; 0; 0; 0; 0; 0; 0; 0; 0; 0; 0; 0; 0; 0; 0; 0; 0; 0; 0; 0.000000; 0.000000; 0.000000; 0.000000; 0.000000; 0.000000; 0.000000; 0.000000; 0.000000; 0.000000; 0.000000; 0.000000; 0.000000; 0.000000; 0.000000; 0.000000; 0.000000; 0.000000; 0.000000; 0.000000; 0.000000; 0.000000; 0.000000; 0.000000; 0.000000; 0.000000; 4963; 0
131072; 260046868;677.543705; 2056; 1984; 3064; 1671; 1692; 1655; 1668; 1764; 11231; 0000; 1706; 1672; 0000; 0000; 3758; 0000; 21491; 0000; 0120; 46.202560; 1502;  0.367857;  38.063919; -994.087891; -0.109325;  0.091538;  0.056983; -1.040863;  5.130577;  0.000000;  21.000000; -2192.000000;  0000; 0000; -9650; 0000; 0000; -02328; -02999; 000000;  0.023262; -2.304895;  0.000000; 0000; 0000; 0000; 0000; 0000; 290717696; 000; 000; 000; 000; 255; 255; 255; 255; 072; 072;  0.000000; -61.975121; 003; 003; -05;  6.468399; 000; 000; 000;  0.000000; 0000; 0000; 0000; 0000; 0211; 0.000000; 0000; 0211;  0.000000;  0.000000;  0.000000; 0; 0;  0.000000; 0.000000; 0.000000; 0.000000;  0.000000;  0.000000;  0.000000; 0;  0.005008;  0.000895; -0.341177;  0.000016;  0.000066;  0.000042;  211; 677.534617; 0045;  287.000000;  49.000000; -19548.000000; 0211; 0.000000; 0.000000; 0.000000 ; 12220; 0.000000; 0.000000; 0.000000; 0.000000; 0.000000; 0.000000; 0.000000; 0.000000; 0.000000; 0.000000; 0.000000; 0.000000; 0000; 0000; 0.942347; 0.334608; 0.004434; -0.334600; 0.942357; -0.002492; -0.005012; 0.000865; 0.999987; 0.000000; 0.000000; 0.000000; 0; 0.000000; 0.000000; 0.000000; 0.000000; -1; 88; 72; 0; 0; 0; 0; 0; 0; 0; 0; 0; 0; 0; 0; 0; 0; 0; 0; 0; 0; 0; 0; 0; 0; 0; 0; 0; 0; 0; 0; 0; 0; 0; 0; 0; 0; 0; 0; 0; 0; 0; 0; 0; 0; 0; 0; 0; 0; 0; 0; 0; 0; 0; 0; 0; 0; 0; 0; 0; 0; 0; 0; 0; 0; 0; 0; 0; 0; 0; 0; 0; 0; 0; 0; 0; 0; 0; 0; 0; 0; 0; 0; 0; 0; 0; 0; 0; 0; 0; 0; 0; 0; 0; 0; 0; 0; 0; 0; 0; 0; 0; 0; 0; 0; 0; 0; 0; 0; 0; 0; 0; 0; 0; 0; 0.000000; 0.000000; 0.000000; 0.000000; 0.000000; 0.000000; 0.000000; 0.000000; 0.000000; 0.000000; 0.000000; 0.000000; 0.000000; 0.000000; 0.000000; 0.000000; 0.000000; 0.000000; 0.000000; 0.000000; 0.000000; 0.000000; 0.000000; 0.000000; 0.000000; 0.000000; 4796; 0
131072; 260046868;677.548695; 2056; 1984; 3064; 1671; 1692; 1655; 1665; 1763; 11231; 0000; 1706; 1672; 0000; 0000; 3758; 0000; 21626; 0000; 0120; 46.201927; 1501;  0.493261;  36.377304; -995.600586; -0.201113; -0.016649;  0.095761; -1.040879;  5.130603;  0.000000;  28.000000; -2092.000000;  0000; 0000; -9650; 0000; 0000; -02328; -02999; 000000;  0.023262; -2.304895;  0.000000; 0000; 0000; 0000; 0000; 0000; 290717696; 000; 000; 000; 000; 255; 255; 255; 255; 072; 072;  0.000000; -61.975121; 003; 003; -05;  6.468399; 000; 000; 000;  0.000000; 0000; 0000; 0000; 0000; 0211; 0.000000; 0000; 0211;  0.000000;  0.000000;  0.000000; 0; 0;  0.000000; 0.000000; 0.000000; 0.000000;  0.000000;  0.000000;  0.000000; 0;  0.005008;  0.000895; -0.341177;  0.000016;  0.000066;  0.000042;  211; 677.534617; 0045;  286.000000;  49.000000; -19548.000000; 0211; 0.000000; 0.000000; 0.000000 ; 12220; 0.000000; 0.000000; 0.000000; 0.000000; 0.000000; 0.000000; 0.000000; 0.000000; 0.000000; 0.000000; 0.000000; 0.000000; 0000; 0000; 0.942346; 0.334610; 0.004422; -0.334602; 0.942356; -0.002478; -0.004996; 0.000855; 0.999987; 0.000000; 0.000000; 0.000000; 0; 0.000000; 0.000000; 0.000000; 0.000000; -1; 88; 72; 0; 0; 0; 0; 0; 0; 0; 0; 0; 0; 0; 0; 0; 0; 0; 0; 0; 0; 0; 0; 0; 0; 0; 0; 0; 0; 0; 0; 0; 0; 0; 0; 0; 0; 0; 0; 0; 0; 0; 0; 0; 0; 0; 0; 0; 0; 0; 0; 0; 0; 0; 0; 0; 0; 0; 0; 0; 0; 0; 0; 0; 0; 0; 0; 0; 0; 0; 0; 0; 0; 0; 0; 0; 0; 0; 0; 0; 0; 0; 0; 0; 0; 0; 0; 0; 0; 0; 0; 0; 0; 0; 0; 0; 0; 0; 0; 0; 0; 0; 0; 0; 0; 0; 0; 0; 0; 0; 0; 0; 0; 0; 0; 0.000000; 0.000000; 0.000000; 0.000000; 0.000000; 0.000000; 0.000000; 0.000000; 0.000000; 0.000000; 0.000000; 0.000000; 0.000000; 0.000000; 0.000000; 0.000000; 0.000000; 0.000000; 0.000000; 0.000000; 0.000000; 0.000000; 0.000000; 0.000000; 0.000000; 0.000000; 4951; 0
131072; 260046868;677.553700; 2056; 1980; 3064; 1670; 1692; 1655; 1662; 1762; 11231; 0000; 1706; 1673; 0781; 2999; 0000; 0003; 21762; 0000; 0120; 46.201294; 1501;  0.462337;  36.694374; -994.693604; -0.238445;  0.101668;  0.101808; -1.040894;  5.130630;  0.000000;  26.000000; -2112.000000;  0000; 0000; -9650; 0000; 0000; -02328; -02999; 000000;  0.023262; -2.304895;  0.000000; 0000; 0000; 0000; 0000; 0000; 290717696; 000; 000; 000; 000; 255; 255; 255; 255; 072; 072;  0.000000; -61.975121; 003; 003; -05;  6.468399; 000; 000; 000;  0.000000; 0000; 0000; 0000; 0000; 0212; 0.000000; 0000; 0212;  0.000000;  0.000000;  0.000000; 0; 0;  0.000000; 0.000000; 0.000000; 0.000000;  0.000000;  0.000000;  0.000000; 0;  0.005008;  0.000895; -0.341177; -0.000081;  0.000043;  0.000019;  211; 677.534617; 0045;  285.000000;  48.000000; -19548.000000; 0212; 0.000000; 0.000000; 0.000000 ; 12220; 0.000000; 0.000000; 0.000000; 0.000000; 0.000000; 0.000000; 0.000000; 0.000000; 0.000000; 0.000000; 0.000000; 0.000000; 0000; 0000; 0.942346; 0.334611; 0.004422; -0.334603; 0.942356; -0.002464; -0.004991; 0.000842; 0.999987; 0.000000; 0.000000; 0.000000; 0; 0.000000; 0.000000; 0.000000; 0.000000; -1; 88; 72; 0; 0; 0; 0; 0; 0; 0; 0; 0; 0; 0; 0; 0; 0; 0; 0; 0; 0; 0; 0; 0; 0; 0; 0; 0; 0; 0; 0; 0; 0; 0; 0; 0; 0; 0; 0; 0; 0; 0; 0; 0; 0; 0; 0; 0; 0; 0; 0; 0; 0; 0; 0; 0; 0; 0; 0; 0; 0; 0; 0; 0; 0; 0; 0; 0; 0; 0; 0; 0; 0; 0; 0; 0; 0; 0; 0; 0; 0; 0; 0; 0; 0; 0; 0; 0; 0; 0; 0; 0; 0; 0; 0; 0; 0; 0; 0; 0; 0; 0; 0; 0; 0; 0; 0; 0; 0; 0; 0; 0; 0; 0; 0; 0.000000; 0.000000; 0.000000; 0.000000; 0.000000; 0.000000; 0.000000; 0.000000; 0.000000; 0.000000; 0.000000; 0.000000; 0.000000; 0.000000; 0.000000; 0.000000; 0.000000; 0.000000; 0.000000; 0.000000; 0.000000; 0.000000; 0.000000; 0.000000; 0.000000; 0.000000; 4966; 0
131072; 260046868;677.558710; 2056; 1980; 3064; 1671; 1692; 1655; 1665; 1765; 11231; 0000; 1706; 1672; 0000; 0000; 3758; 0000; 21897; 0000; 0120; 46.202232; 1501;  0.415588;  38.828384; -994.970215; -0.288751; -0.000750;  0.075976; -1.040897;  5.130656;  0.000000;  23.000000; -2234.000000;  0000; 0000; -9650; 0000; 0000; -02328; -02999; 000000;  0.023262; -2.304895;  0.000000; 0000; 0000; 0000; 0000; 0000; 290717696; 000; 000; 000; 000; 255; 255; 255; 255; 072; 072;  0.000000; -61.975121; 003; 003; -05;  6.468399; 000; 000; 000;  0.000000; 0000; 0000; 0000; 0000; 0212; 0.000000; 0000; 0212;  0.000000;  0.000000;  0.000000; 0; 0;  0.000000; 0.000000; 0.000000; 0.000000;  0.000000;  0.000000;  0.000000; 0;  0.004996;  0.000855; -0.341187; -0.000081;  0.000043;  0.000019;  211; 677.551240; 0045;  285.000000;  46.000000; -19548.000000; 0212; 0.000000; 0.000000; 0.000000 ; 12220; 0.000000; 0.000000; 0.000000; 0.000000; 0.000000; 0.000000; 0.000000; 0.000000; 0.000000; 0.000000; 0.000000; 0.000000; 0000; 0000; 0.942345; 0.334615; 0.004416; -0.334607; 0.942355; -0.002437; -0.004977; 0.000819; 0.999987; 0.000000; 0.000000; 0.000000; 0; 0.000000; 0.000000; 0.000000; 0.000000; -1; 88; 72; 0; 0; 0; 0; 0; 0; 0; 0; 0; 0; 0; 0; 0; 0; 0; 0; 0; 0; 0; 0; 0; 0; 0; 0; 0; 0; 0; 0; 0; 0; 0; 0; 0; 0; 0; 0; 0; 0; 0; 0; 0; 0; 0; 0; 0; 0; 0; 0; 0; 0; 0; 0; 0; 0; 0; 0; 0; 0; 0; 0; 0; 0; 0; 0; 0; 0; 0; 0; 0; 0; 0; 0; 0; 0; 0; 0; 0; 0; 0; 0; 0; 0; 0; 0; 0; 0; 0; 0; 0; 0; 0; 0; 0; 0; 0; 0; 0; 0; 0; 0; 0; 0; 0; 0; 0; 0; 0; 0; 0; 0; 0; 0; 0.000000; 0.000000; 0.000000; 0.000000; 0.000000; 0.000000; 0.000000; 0.000000; 0.000000; 0.000000; 0.000000; 0.000000; 0.000000; 0.000000; 0.000000; 0.000000; 0.000000; 0.000000; 0.000000; 0.000000; 0.000000; 0.000000; 0.000000; 0.000000; 0.000000; 0.000000; 4972; 0
131072; 260046868;677.563697; 2056; 1980; 3064; 1671; 1692; 1655; 1668; 1762; 11231; 0000; 1706; 1672; 0000; 0000; 3758; 0000; 22033; 0000; 0120; 46.201599; 1501;  0.426254;  39.331314; -995.210938; -0.400173;  0.073727;  0.079371; -1.040897;  5.130683;  0.000000;  24.000000; -2263.000000;  0000; 0000; -9650; 0000; 0000; -02328; -02999; 000000;  0.023262; -2.304895;  0.000000; 0000; 0000; 0000; 0000; 0000; 290717696; 000; 000; 000; 000; 255; 255; 255; 255; 072; 072;  0.000000; -61.975121; 003; 003; -05;  6.468399; 000; 000; 000;  0.000000; 0000; 0000; 0000; 0000; 0212; 0.000000; 0000; 0212;  0.000000;  0.000000;  0.000000; 0; 0;  0.000000; 0.000000; 0.000000; 0.000000;  0.000000;  0.000000;  0.000000; 0;  0.004996;  0.000855; -0.341187; -0.000081;  0.000043;  0.000019;  211; 677.551240; 0045;  284.000000;  44.000000; -19549.000000; 0212; 0.000000; 0.000000; 0.000000 ; 12220; 0.000000; 0.000000; 0.000000; 0.000000; 0.000000; 0.000000; 0.000000; 0.000000; 0.000000; 0.000000; 0.000000; 0.000000; 0000; 0000; 0.942344; 0.334618; 0.004421; -0.334610; 0.942354; -0.002402; -0.004970; 0.000784; 0.999987; 0.000000; 0.000000; 0.000000; 0; 0.000000; 0.000000; 0.000000; 0.000000; -1; 88; 72; 0; 0; 0; 0; 0; 0; 0; 0; 0; 0; 0; 0; 0; 0; 0; 0; 0; 0; 0; 0; 0; 0; 0; 0; 0; 0; 0; 0; 0; 0; 0; 0; 0; 0; 0; 0; 0; 0; 0; 0; 0; 0; 0; 0; 0; 0; 0; 0; 0; 0; 0; 0; 0; 0; 0; 0; 0; 0; 0; 0; 0; 0; 0; 0; 0; 0; 0; 0; 0; 0; 0; 0; 0; 0; 0; 0; 0; 0; 0; 0; 0; 0; 0; 0; 0; 0; 0; 0; 0; 0; 0; 0; 0; 0; 0; 0; 0; 0; 0; 0; 0; 0; 0; 0; 0; 0; 0; 0; 0; 0; 0; 0; 0.000000; 0.000000; 0.000000; 0.000000; 0.000000; 0.000000; 0.000000; 0.000000; 0.000000; 0.000000; 0.000000; 0.000000; 0.000000; 0.000000; 0.000000; 0.000000; 0.000000; 0.000000; 0.000000; 0.000000; 0.000000; 0.000000; 0.000000; 0.000000; 0.000000; 0.000000; 4944; 0
131072; 260046868;677.568673; 2056; 1984; 3064; 1671; 1692; 1655; 1664; 1763; 11231; 0000; 1706; 1672; 0000; 0000; 3758; 0000; 22169; 0000; 0120; 46.202538; 1502;  0.409704;  39.382805; -994.817627; -0.250694;  0.098706;  0.087185; -1.040897;  5.130709;  0.000000;  23.000000; -2267.000000;  0000; 0000; -9650; 0000; 0000; -02328; -02999; 000000;  0.023262; -2.304895;  0.000000; 0000; 0000; 0000; 0000; 0000; 290717696; 000; 000; 000; 000; 255; 255; 255; 255; 072; 072;  0.000000; -61.975121; 003; 003; -05;  6.468399; 000; 000; 000;  0.000000; 0000; 0000; 0000; 0000; 0212; 0.000000; 0000; 0212;  0.000000;  0.000000;  0.000000; 0; 0;  0.000000; 0.000000; 0.000000; 0.000000;  0.000000;  0.000000;  0.000000; 0;  0.004996;  0.000855; -0.341187; -0.000070;  0.000008;  0.000026;  211; 677.551240; 0045;  284.000000;  43.000000; -19549.000000; 0212; 0.000000; 0.000000; 0.000000 ; 12220; 0.000000; 0.000000; 0.000000; 0.000000; 0.000000; 0.000000; 0.000000; 0.000000; 0.000000; 0.000000; 0.000000; 0.000000; 0000; 0000; 0.942343; 0.334620; 0.004423; -0.334613; 0.942353; -0.002379; -0.004964; 0.000762; 0.999987; 0.000000; 0.000000; 0.000000; 0; 0.000000; 0.000000; 0.000000; 0.000000; -1; 88; 72; 0; 0; 0; 0; 0; 0; 0; 0; 0; 0; 0; 0; 0; 0; 0; 0; 0; 0; 0; 0; 0; 0; 0; 0; 0; 0; 0; 0; 0; 0; 0; 0; 0; 0; 0; 0; 0; 0; 0; 0; 0; 0; 0; 0; 0; 0; 0; 0; 0; 0; 0; 0; 0; 0; 0; 0; 0; 0; 0; 0; 0; 0; 0; 0; 0; 0; 0; 0; 0; 0; 0; 0; 0; 0; 0; 0; 0; 0; 0; 0; 0; 0; 0; 0; 0; 0; 0; 0; 0; 0; 0; 0; 0; 0; 0; 0; 0; 0; 0; 0; 0; 0; 0; 0; 0; 0; 0; 0; 0; 0; 0; 0; 0.000000; 0.000000; 0.000000; 0.000000; 0.000000; 0.000000; 0.000000; 0.000000; 0.000000; 0.000000; 0.000000; 0.000000; 0.000000; 0.000000; 0.000000; 0.000000; 0.000000; 0.000000; 0.000000; 0.000000; 0.000000; 0.000000; 0.000000; 0.000000; 0.000000; 0.000000; 4938; 0
131072; 260046868;677.573702; 2056; 1984; 3064; 1671; 1692; 1655; 1667; 1761; 11231; 0000; 1706; 1672; 0000; 0000; 3758; 0000; 22307; 0000; 0120; 46.203468; 1501;  0.431488;  37.982101; -994.914551; -0.089397;  0.039597;  0.083281; -1.040905;  5.130736;  0.000000;  24.000000; -2186.000000;  0000; 0000; -9650; 0000; 0000; -02328; -02999; 000000;  0.023262; -2.304895;  0.000000; 0000; 0000; 0000; 0000; 0000; 290717696; 000; 000; 000; 000; 255; 255; 255; 255; 072; 072;  0.000000; -61.975121; 003; 003; -05;  6.468399; 000; 000; 000;  0.000000; 0000; 0000; 0000; 0000; 0212; 0.000000; 0000; 0212;  0.000000;  0.000000;  0.000000; 0; 0;  0.000000; 0.000000; 0.000000; 0.000000;  0.000000;  0.000000;  0.000000; 0;  0.004970;  0.000784; -0.341196; -0.000070;  0.000008;  0.000026;  212; 677.567883; 0045;  283.000000;  43.000000; -19549.000000; 0212; 0.000000; 0.000000; 0.000000 ; 12220; 0.000000; 0.000000; 0.000000; 0.000000; 0.000000; 0.000000; 0.000000; 0.000000; 0.000000; 0.000000; 0.000000; 0.000000; 0000; 0000; 0.942342; 0.334623; 0.004415; -0.334616; 0.942352; -0.002373; -0.004954; 0.000759; 0.999987; 0.000000; 0.000000; 0.000000; 0; 0.000000; 0.000000; 0.000000; 0.000000; -1; 88; 72; 0; 0; 0; 0; 0; 0; 0; 0; 0; 0; 0; 0; 0; 0; 0; 0; 0; 0; 0; 0; 0; 0; 0; 0; 0; 0; 0; 0; 0; 0; 0; 0; 0; 0; 0; 0; 0; 0; 0; 0; 0; 0; 0; 0; 0; 0; 0; 0; 0; 0; 0; 0; 0; 0; 0; 0; 0; 0; 0; 0; 0; 0; 0; 0; 0; 0; 0; 0; 0; 0; 0; 0; 0; 0; 0; 0; 0; 0; 0; 0; 0; 0; 0; 0; 0; 0; 0; 0; 0; 0; 0; 0; 0; 0; 0; 0; 0; 0; 0; 0; 0; 0; 0; 0; 0; 0; 0; 0; 0; 0; 0; 0; 0.000000; 0.000000; 0.000000; 0.000000; 0.000000; 0.000000; 0.000000; 0.000000; 0.000000; 0.000000; 0.000000; 0.000000; 0.000000; 0.000000; 0.000000; 0.000000; 0.000000; 0.000000; 0.000000; 0.000000; 0.000000; 0.000000; 0.000000; 0.000000; 0.000000; 0.000000; 4991; 0
131072; 260046868;677.578656; 2060; 1980; 3064; 1671; 1692; 1655; 1663; 1765; 11231; 0000; 1706; 1673; 0000; 0000; 3758; 0000; 22442; 0000; 0120; 46.202835; 1501;  1.919356;  37.410980; -995.094482; -0.203011;  0.050432;  0.086117; -1.040917;  5.130754;  0.000000;  110.000000; -2153.000000;  0000; 0000; -9650; 0000; 0000; -02328; -02999; 000000;  0.023262; -2.304895;  0.000000; 0000; 0000; 0000; 0000; 0000; 290717696; 000; 000; 000; 000; 255; 255; 255; 255; 072; 072;  0.000000; -61.975121; 003; 003; -05;  6.468399; 000; 000; 000;  0.000000; 0000; 0000; 0000; 0000; 0212; 0.000000; 0000; 0212;  0.000000;  0.000000;  0.000000; 0; 0;  0.000000; 0.000000; 0.000000; 0.000000;  0.000000;  0.000000;  0.000000; 0;  0.004970;  0.000784; -0.341196; -0.000070;  0.000008;  0.000026;  212; 677.567883; 0045;  283.000000;  42.000000; -19549.000000; 0212; 0.000000; 0.000000; 0.000000 ; 12221; 0.000000; 0.000000; 0.000000; 0.000000; 0.000000; 0.000000; 0.000000; 0.000000; 0.000000; 0.000000; 0.000000; 0.000000; 0000; 0000; 0.942341; 0.334626; 0.004414; -0.334618; 0.942351; -0.002360; -0.004949; 0.000747; 0.999987; 0.000000; 0.000000; 0.000000; 0; 0.000000; 0.000000; 0.000000; 0.000000; -1; 88; 72; 0; 0; 0; 0; 0; 0; 0; 0; 0; 0; 0; 0; 0; 0; 0; 0; 0; 0; 0; 0; 0; 0; 0; 0; 0; 0; 0; 0; 0; 0; 0; 0; 0; 0; 0; 0; 0; 0; 0; 0; 0; 0; 0; 0; 0; 0; 0; 0; 0; 0; 0; 0; 0; 0; 0; 0; 0; 0; 0; 0; 0; 0; 0; 0; 0; 0; 0; 0; 0; 0; 0; 0; 0; 0; 0; 0; 0; 0; 0; 0; 0; 0; 0; 0; 0; 0; 0; 0; 0; 0; 0; 0; 0; 0; 0; 0; 0; 0; 0; 0; 0; 0; 0; 0; 0; 0; 0; 0; 0; 0; 0; 0; 0.000000; 0.000000; 0.000000; 0.000000; 0.000000; 0.000000; 0.000000; 0.000000; 0.000000; 0.000000; 0.000000; 0.000000; 0.000000; 0.000000; 0.000000; 0.000000; 0.000000; 0.000000; 0.000000; 0.000000; 0.000000; 0.000000; 0.000000; 0.000000; 0.000000; 0.000000; 4916; 0
131072; 260046868;677.583626; 2060; 1980; 3060; 1671; 1692; 1655; 1667; 1765; 11231; 0000; 1706; 1672; 0000; 0000; 3758; 0000; 22578; 0000; 0120; 46.202202; 1502;  2.816371;  37.141869; -993.566162; -0.127280;  0.067544;  0.085440; -1.040929;  5.130768;  0.000000;  162.000000; -2140.000000;  0000; 0000; -9650; 0000; 0000; -02328; -02999; 000000;  0.023262; -2.304895;  0.000000; 0000; 0000; 0000; 0000; 0000; 290717696; 000; 000; 000; 000; 255; 255; 255; 255; 072; 072;  0.000000; -61.975121; 003; 003; -05;  6.468399; 000; 000; 000;  0.000000; 0000; 0000; 0000; 0000; 0212; 0.000000; 0000; 0212;  0.000000;  0.000000;  0.000000; 0; 0;  0.000000; 0.000000; 0.000000; 0.000000;  0.000000;  0.000000;  0.000000; 0;  0.004970;  0.000784; -0.341196; -0.000070;  0.000008;  0.000026;  212; 677.567883; 0045;  283.000000;  42.000000; -19549.000000; 0212; 0.000000; 0.000000; 0.000000 ; 12221; 0.000000; 0.000000; 0.000000; 0.000000; 0.000000; 0.000000; 0.000000; 0.000000; 0.000000; 0.000000; 0.000000; 0.000000; 0000; 0000; 0.942340; 0.334629; 0.004414; -0.334621; 0.942350; -0.002355; -0.004948; 0.000742; 0.999987; 0.000000; 0.000000; 0.000000; 0; 0.000000; 0.000000; 0.000000; 0.000000; -1; 88; 72; 0; 0; 0; 0; 0; 0; 0; 0; 0; 0; 0; 0; 0; 0; 0; 0; 0; 0; 0; 0; 0; 0; 0; 0; 0; 0; 0; 0; 0; 0; 0; 0; 0; 0; 0; 0; 0; 0; 0; 0; 0; 0; 0; 0; 0; 0; 0; 0; 0; 0; 0; 0; 0; 0; 0; 0; 0; 0; 0; 0; 0; 0; 0; 0; 0; 0; 0; 0; 0; 0; 0; 0; 0; 0; 0; 0; 0; 0; 0; 0; 0; 0; 0; 0; 0; 0; 0; 0; 0; 0; 0; 0; 0; 0; 0; 0; 0; 0; 0; 0; 0; 0; 0; 0; 0; 0; 0; 0; 0; 0; 0; 0; 0.000000; 0.000000; 0.000000; 0.000000; 0.000000; 0.000000; 0.000000; 0.000000; 0.000000; 0.000000; 0.000000; 0.000000; 0.000000; 0.000000; 0.000000; 0.000000; 0.000000; 0.000000; 0.000000; 0.000000; 0.000000; 0.000000; 0.000000; 0.000000; 0.000000; 0.000000; 4931; 0
131072; 260046868;677.588656; 2056; 1980; 3064; 1671; 1692; 1655; 1666; 1763; 11231; 0000; 1706; 1672; 0000; 0000; 3758; 0000; 22713; 0000; 0120; 46.203133; 1502;  2.919235;  39.855148; -993.927490; -0.209639;  0.054766;  0.082486; -1.040927;  5.130781;  0.000000;  168.000000; -2296.000000;  0000; 0000; -9650; 0000; 0000; -02328; -02999; 000000;  0.023262; -2.304895;  0.000000; 0000; 0000; 0000; 0000; 0000; 290717696; 000; 000; 000; 000; 255; 255; 255; 255; 072; 072;  0.000000; -61.975121; 003; 003; -05;  6.468399; 000; 000; 000;  0.000000; 0000; 0000; 0000; 0000; 0212; 0.000000; 0000; 0212;  0.000000;  0.000000;  0.000000; 0; 0;  0.000000; 0.000000; 0.000000; 0.000000;  0.000000;  0.000000;  0.000000; 0;  0.004948;  0.000742; -0.341208; -0.000068;  0.000019;  0.000024;  212; 677.584483; 0045;  283.000000;  41.000000; -19549.000000; 0212; 0.000000; 0.000000; 0.000000 ; 12221; 0.000000; 0.000000; 0.000000; 0.000000; 0.000000; 0.000000; 0.000000; 0.000000; 0.000000; 0.000000; 0.000000; 0.000000; 0000; 0000; 0.942339; 0.334632; 0.004419; -0.334624; 0.942349; -0.002336; -0.004946; 0.000723; 0.999988; 0.000000; 0.000000; 0.000000; 0; 0.000000; 0.000000; 0.000000; 0.000000; -1; 88; 72; 0; 0; 0; 0; 0; 0; 0; 0; 0; 0; 0; 0; 0; 0; 0; 0; 0; 0; 0; 0; 0; 0; 0; 0; 0; 0; 0; 0; 0; 0; 0; 0; 0; 0; 0; 0; 0; 0; 0; 0; 0; 0; 0; 0; 0; 0; 0; 0; 0; 0; 0; 0; 0; 0; 0; 0; 0; 0; 0; 0; 0; 0; 0; 0; 0; 0; 0; 0; 0; 0; 0; 0; 0; 0; 0; 0; 0; 0; 0; 0; 0; 0; 0; 0; 0; 0; 0; 0; 0; 0; 0; 0; 0; 0; 0; 0; 0; 0; 0; 0; 0; 0; 0; 0; 0; 0; 0; 0; 0; 0; 0; 0; 0.000000; 0.000000; 0.000000; 0.000000; 0.000000; 0.000000; 0.000000; 0.000000; 0.000000; 0.000000; 0.000000; 0.000000; 0.000000; 0.000000; 0.000000; 0.000000; 0.000000; 0.000000; 0.000000; 0.000000; 0.000000; 0.000000; 0.000000; 0.000000; 0.000000; 0.000000; 4991; 0
131072; 260046868;677.593640; 2056; 1984; 3060; 1670; 1692; 1655; 1661; 1763; 11231; 0000; 1706; 1672; 0780; 3001; 0000; 0001; 22849; 0000; 0120; 46.204063; 1502;  2.654109;  39.165451; -991.944824; -0.366998;  0.062132;  0.084441; -1.040929;  5.130795;  0.000000;  153.000000; -2261.000000;  0000; 0000; -9650; 0000; 0000; -02328; -02999; 000000;  0.023262; -2.304895;  0.000000; 0000; 0000; 0000; 0000; 0000; 290717696; 000; 000; 000; 000; 255; 255; 255; 255; 072; 072;  0.000000; -61.975121; 003; 003; -05;  6.468399; 000; 000; 000;  0.000000; 0000; 0000; 0000; 0000; 0212; 0.000000; 0000; 0212;  0.000000;  0.000000;  0.000000; 0; 0;  0.000000; 0.000000; 0.000000; 0.000000;  0.000000;  0.000000;  0.000000; 0;  0.004948;  0.000742; -0.341208; -0.000068;  0.000019;  0.000024;  212; 677.584483; 0045;  283.000000;  39.000000; -19550.000000; 0212; 0.000000; 0.000000; 0.000000 ; 12221; 0.000000; 0.000000; 0.000000; 0.000000; 0.000000; 0.000000; 0.000000; 0.000000; 0.000000; 0.000000; 0.000000; 0.000000; 0000; 0000; 0.942338; 0.334634; 0.004427; -0.334627; 0.942348; -0.002306; -0.004943; 0.000692; 0.999988; 0.000000; 0.000000; 0.000000; 0; 0.000000; 0.000000; 0.000000; 0.000000; -1; 88; 72; 0; 0; 0; 0; 0; 0; 0; 0; 0; 0; 0; 0; 0; 0; 0; 0; 0; 0; 0; 0; 0; 0; 0; 0; 0; 0; 0; 0; 0; 0; 0; 0; 0; 0; 0; 0; 0; 0; 0; 0; 0; 0; 0; 0; 0; 0; 0; 0; 0; 0; 0; 0; 0; 0; 0; 0; 0; 0; 0; 0; 0; 0; 0; 0; 0; 0; 0; 0; 0; 0; 0; 0; 0; 0; 0; 0; 0; 0; 0; 0; 0; 0; 0; 0; 0; 0; 0; 0; 0; 0; 0; 0; 0; 0; 0; 0; 0; 0; 0; 0; 0; 0; 0; 0; 0; 0; 0; 0; 0; 0; 0; 0; 0.000000; 0.000000; 0.000000; 0.000000; 0.000000; 0.000000; 0.000000; 0.000000; 0.000000; 0.000000; 0.000000; 0.000000; 0.000000; 0.000000; 0.000000; 0.000000; 0.000000; 0.000000; 0.000000; 0.000000; 0.000000; 0.000000; 0.000000; 0.000000; 0.000000; 0.000000; 4930; 0
131072; 260046868;677.598621; 2056; 1984; 3060; 1671; 1691; 1655; 1664; 1763; 11231; 0000; 1706; 1672; 0000; 0000; 3758; 0000; 22985; 0000; 0120; 46.204994; 1502;  0.308255;  37.922249; -991.881836; -0.257617;  0.205467;  0.085184; -1.040938;  5.130822;  0.000000;  17.000000; -2189.000000;  0000; 0000; -9650; 0000; 0000; -02328; -02999; 000000;  0.023262; -2.304895;  0.000000; 0000; 0000; 0000; 0000; 0000; 290717696; 000; 000; 000; 000; 255; 255; 255; 255; 072; 072;  0.000000; -61.975121; 003; 003; -05;  6.468399; 000; 000; 000;  0.000000; 0000; 0000; 0000; 0000; 0212; 0.000000; 0000; 0212;  0.000000;  0.000000;  0.000000; 0; 0;  0.000000; 0.000000; 0.000000; 0.000000;  0.000000;  0.000000;  0.000000; 0;  0.004948;  0.000742; -0.341208; -0.000068;  0.000019;  0.000024;  212; 677.584483; 0045;  283.000000;  38.000000; -19550.000000; 0212; 0.000000; 0.000000; 0.000000 ; 12221; 0.000000; 0.000000; 0.000000; 0.000000; 0.000000; 0.000000; 0.000000; 0.000000; 0.000000; 0.000000; 0.000000; 0.000000; 0000; 0000; 0.942337; 0.334637; 0.004436; -0.334630; 0.942347; -0.002291; -0.004947; 0.000674; 0.999988; 0.000000; 0.000000; 0.000000; 0; 0.000000; 0.000000; 0.000000; 0.000000; -1; 88; 72; 0; 0; 0; 0; 0; 0; 0; 0; 0; 0; 0; 0; 0; 0; 0; 0; 0; 0; 0; 0; 0; 0; 0; 0; 0; 0; 0; 0; 0; 0; 0; 0; 0; 0; 0; 0; 0; 0; 0; 0; 0; 0; 0; 0; 0; 0; 0; 0; 0; 0; 0; 0; 0; 0; 0; 0; 0; 0; 0; 0; 0; 0; 0; 0; 0; 0; 0; 0; 0; 0; 0; 0; 0; 0; 0; 0; 0; 0; 0; 0; 0; 0; 0; 0; 0; 0; 0; 0; 0; 0; 0; 0; 0; 0; 0; 0; 0; 0; 0; 0; 0; 0; 0; 0; 0; 0; 0; 0; 0; 0; 0; 0; 0.000000; 0.000000; 0.000000; 0.000000; 0.000000; 0.000000; 0.000000; 0.000000; 0.000000; 0.000000; 0.000000; 0.000000; 0.000000; 0.000000; 0.000000; 0.000000; 0.000000; 0.000000; 0.000000; 0.000000; 0.000000; 0.000000; 0.000000; 0.000000; 0.000000; 0.000000; 4942; 0
