VERSION 19b
Control_state [-]; ARDrone_state [-]; Time [s];     AccX_raw [LSB]; AccY_raw [LSB]; AccZ_raw [LSB];     GyroX_raw [LSB]; GyroY_raw [LSB]; GyroZ_raw [LSB]; GyroX_110_raw [LSB]; GyroY_110_raw [LSB];Battery_Voltage_raw [mV];     Alim_3V3 [LSB]; vrefEpson [LSB]; vrefIDG [LSB]; us_debut_echo [LSB]; us_fin_echo [LSB]; us_association_echo; us_distance_echo [LSB];     us_courbe_temps [LSB]; us_courbe_valeur [LSB]; us_courbe_ref [LSB];    Accs_temperature [K]; Gyro_temperature [LSB]; AccX_phys_filt [mg]; AccY_phys_filt [mg]; AccZ_phys_filt [mg];     GyroX_phys_filt [deg/s]; GyroY_phys_filt [deg/s]; GyroZ_phys_filt [deg/s];    GyroX_offset [deg/s]; GyroY_offset [deg/s]; GyroZ_offset [deg/s];     Theta_acc [mdeg]; Phi_acc [mdeg];    Theta_ref_embedded [mdeg]; Phi_ref_embedded [mdeg]; Psi_ref_embedded [mdeg]; Theta_ref_int [mdeg]; Phi_ref_int [mdeg];     Pitch_ref_embedded [mdeg]; Roll_ref_embedded [mdeg]; Yaw_ref_embedded [mdeg/s];     Theta_trim_embedded [mdeg]; Phi_trim_embedded [mdeg]; Yaw_trim_embedded [mdeg/s];     Pitch_rc_embedded [-]; Roll_rc_embedded [-]; Yaw_rc_embedded [-]; Gaz_rc_embedded [-]; Ag_rc_embedded [-]; User_Input [-];     PWM1 [PWM]; PWM2 [PWM]; PWM3 [PWM]; PWM4 [PWM];    SAT_PWM1 [PWM]; SAT_PWM2 [PWM]; SAT_PWM3 [PWM]; SAT_PWM4 [PWM];    Gaz_feed_forward [PWM]; Gaz_altitude [PWM]; Altitude_integral [mm/s]; Vz_Ref [mm/s] ;    u_pitch [PWM]; u_roll [PWM]; u_yaw [PWM]; yaw_u_I [PWM];    u_pitch_planif [PWM]; u_roll_planif [PWM]; u_yaw_planif [PWM]; u_gaz_planif [PWM];    Current_motor1 [mA]; Current_motor2 [mA]; Current_motor3 [mA]; Current_motor4 [mA];    Altitude_vision [mm]; Altitude_vz [mm/s]; Altitude_ref_embedded [mm]; Altitude_raw [mm];     Vision_tx_raw [-]; Vision_ty_raw [-]; Vision_tz_raw [-];   Vision_State [-]; Vision_defined [-];    Vision_phi_trim[rad]; Vision_phi_ref_prop[rad]; Vision_theta_trim[rad]; Vision_theta_ref_prop[rad];    Vx_body [mm/s]; Vy_body [mm/s]; Vz_body [mm/s];    New_raw_picture [-]; T_capture; F_capture; P_capture; delta_Phi; delta_Theta; delta_Psi; Alt_capture [-]; time_capture [s];	Demo_vbat [-]; Demo_theta [mdeg]; Demo_phi [mdeg]; Demo_psi [mdeg];  Demo_altitude [mm];  Demo_vx [mm/s]; Demo_vy [mm/s]; Demo_vz [mm/s];Demo_num_frames [-];    Demo_detect_rot_m11 [-]; Demo_detect_rot_m12 [-]; Demo_detect_rot_m13 [-]; Demo_detect_rot_m21 [-]; Demo_detect_rot_m22 [-]; Demo_detect_rot_m23 [-];    Demo_detect_rot_m31 [-]; Demo_detect_rot_m32 [-]; Demo_detect_rot_m33 [-]; Demo_detect_trans_v1 [-]; Demo_detect_trans_v2 [-]; Demo_detect_trans_v3 [-]; 	Demo_detect_tag_index [-]; Demo_camera_type [-]; Demo_drone_camera_rot_m11 [-]; Demo_drone_camera_rot_m12 [-]; Demo_drone_camera_rot_m13 [-];    Demo_drone_camera_rot_m21 [-]; Demo_drone_camera_rot_m22 [-]; Demo_drone_camera_rot_m23 [-]; Demo_drone_camera_rot_m31 [-]; Demo_drone_camera_rot_m32 [-];    Demo_drone_camera_rot_m33 [-]; Demo_drone_camera_trans_x [-]; Demo_drone_camera_trans_y [-]; Demo_drone_camera_trans_z [-];		nd_iphone_enable [-]; nd_iphone_phi [-]; nd_iphone_theta [-]; nd_iphone_gaz [-]; nd_iphone_yaw [-];Locked_0; X_0; Y_0; Locked_1; X_1; Y_1; Locked_2; X_2; Y_2; Locked_3; X_3; Y_3; Locked_4; X_4; Y_4; Locked_5; X_5; Y_5; Locked_6; X_6; Y_6; Locked_7; X_7; Y_7; Locked_8; X_8; Y_8; Locked_9; X_9; Y_9; Locked_10; X_10; Y_10; Locked_11; X_11; Y_11; Locked_12; X_12; Y_12; Locked_13; X_13; Y_13; Locked_14; X_14; Y_14; Locked_15; X_15; Y_15; Locked_16; X_16; Y_16; Locked_17; X_17; Y_17; Locked_18; X_18; Y_18; Locked_19; X_19; Y_19; Locked_20; X_20; Y_20; Locked_21; X_21; Y_21; Locked_22; X_22; Y_22; Locked_23; X_23; Y_23; Locked_24; X_24; Y_24; Locked_25; X_25; Y_25; Locked_26; X_26; Y_26; Locked_27; X_27; Y_27; Locked_28; X_28; Y_28; Locked_29; X_29; Y_29; Nb_detected; Type_0; Xd_0; Yd_0; W_0; H_0; D_0; Type_1; Xd_1; Yd_1; W_1; H_1; D_1; Type_2; Xd_2; Yd_2; W_2; H_2; D_2; Type_3; Xd_3; Yd_3; W_3; H_3; D_3; Perf_szo [ms]; Perf_corners [ms]; Perf_compute [ms]; Perf_tracking [ms]; Perf_trans [ms]; Perf_update [ms]; Perf_Custom_0; Perf_Custom_1; Perf_Custom_2; Perf_Custom_3; Perf_Custom_4; Perf_Custom_5; Perf_Custom_6; Perf_Custom_7; Perf_Custom_8; Perf_Custom_9; Perf_Custom_10; Perf_Custom_11; Perf_Custom_12; Perf_Custom_13; Perf_Custom_14; Perf_Custom_15; Perf_Custom_16; Perf_Custom_17; Perf_Custom_18; Perf_Custom_19; Watchdog Control [-];     flag_new_picture [-];
0; 3481411604;1571.000086; 2064; 1996; 3068; 1658; 1695; 1654; 1608; 1779; 12378; 0000; 1706; 1671; 0000; 0000; 3758; 0000; 20401; 0000; 0120; 50.026794; 1515;  9.854261;  24.367126; -999.484619;  0.074187; -0.165348; -0.098965;  0.524245;  4.410881;  0.000000;  564.000000; -1396.000000;  -2114; -2615; -38043; 0000; 0000; -13887; -24523; 000000;  0.446936; -1.163555;  0.000000; 0000; 0000; 0000; 0000; 0000; 290717696; 000; 000; 000; 000; 255; 255; 255; 255; 156; 116; -3.662855; -700.453613; -66; -11; -19; -10.000000; 000; 000; 000;  0.000000; 0000; 0000; 0000; 0000; 0209; 0.000000; 0000; 0209;  199.039108; -54.411934;  0.000000; 1; 1;  1.500000;-0.045656;-0.019237;-0.036905;  0.000000;  0.000000;  0.000000; 0;  0.002775;  0.000847; -1.857207;  0.000052; -0.000074; -0.000028;  209; 1570.979941; 0066;  152.000000;  48.000000; -106409.000000; 0209; 0.000000; 0.000000; 0.000000 ; 28805; 0.000000; 0.000000; 0.000000; 0.000000; 0.000000; 0.000000; 0.000000; 0.000000; 0.000000; 0.000000; 0.000000; 0.000000; 0000; 0000; -0.282507; 0.959264; -0.001561; -0.959262; -0.282510; -0.002307; -0.002654; 0.000846; 0.999996; 0.000000; 0.000000; 0.000000; 0; 0.000000; 0.000000; 0.000000; 0.000000; -1; 89; 75; 0; 51; 24; 0; 85; 24; 0; 119; 24; 0; 149; 24; 0; 23; 54; 0; 51; 54; 0; 85; 54; 0; 119; 54; 0; 149; 54; 1; 8; 77; 1; 33; 106; 0; 85; 90; 0; 119; 90; 0; 149; 90; 0; 23; 119; 1; 38; 119; 0; 85; 119; 0; 119; 119; 0; 149; 119; 0; 0; 0; 0; 0; 0; 0; 0; 0; 0; 0; 0; 0; 0; 0; 0; 0; 0; 0; 0; 0; 0; 0; 0; 0; 0; 0; 0; 0; 0; 0; 0; 0; 0; 0; 0; 0; 0; 0; 0; 0; 0; 0; 0; 0; 0; 0; 0; 0; 0; 0; 0; 0; 0; 0; 0.000000; 0.000000; 0.000000; 0.000000; 0.000000; 0.000000; 0.000000; 0.000000; 0.000000; 0.000000; 0.000000; 0.000000; 0.000000; 0.000000; 0.000000; 0.000000; 0.000000; 0.000000; 0.000000; 0.000000; 0.000000; 0.000000; 0.000000; 0.000000; 0.000000; 0.000000; 5008; 0
0; 3481411604;1571.005057; 2064; 1996; 3072; 1658; 1694; 1654; 1604; 1775; 12378; 0000; 1705; 1671; 0000; 0000; 3758; 0000; 20538; 0000; 0120; 50.026711; 1515;  10.587965;  24.396416; -1001.522705;  0.148564; -0.075442; -0.099126;  0.524271;  4.410880;  0.000000;  605.000000; -1395.000000;  -2114; -2615; -38043; 0000; 0000; -13887; -24523; 000000;  0.446936; -1.163555;  0.000000; 0000; 0000; 0000; 0000; 0000; 290717696; 000; 000; 000; 000; 255; 255; 255; 255; 156; 116; -3.662855; -700.453613; -66; -11; -19; -10.000000; 000; 000; 000;  0.000000; 0000; 0000; 0000; 0000; 0209; 0.000000; 0000; 0209;  0.000000;  0.000000;  0.000000; 0; 0;  1.500000;-0.045656;-0.019237;-0.036905;  0.000000;  0.000000;  0.000000; 0;  0.002670;  0.000853; -1.857204;  0.000052; -0.000074; -0.000028;  209; 1570.996558; 0066;  151.000000;  48.000000; -106409.000000; 0209; 0.000000; 0.000000; 0.000000 ; 28805; 0.000000; 0.000000; 0.000000; 0.000000; 0.000000; 0.000000; 0.000000; 0.000000; 0.000000; 0.000000; 0.000000; 0.000000; 0000; 0000; -0.282506; 0.959264; -0.001558; -0.959262; -0.282509; -0.002302; -0.002648; 0.000845; 0.999996; 0.000000; 0.000000; 0.000000; 0; 0.000000; 0.000000; 0.000000; 0.000000; -1; 88; 72; 0; 51; 24; 0; 85; 24; 0; 119; 24; 0; 149; 24; 0; 23; 54; 0; 51; 54; 0; 85; 54; 0; 119; 54; 0; 149; 54; 1; 8; 77; 1; 33; 106; 0; 85; 90; 0; 119; 90; 0; 149; 90; 0; 23; 119; 1; 38; 119; 0; 85; 119; 0; 119; 119; 0; 149; 119; 0; 0; 0; 0; 0; 0; 0; 0; 0; 0; 0; 0; 0; 0; 0; 0; 0; 0; 0; 0; 0; 0; 0; 0; 0; 0; 0; 0; 0; 0; 0; 0; 0; 0; 0; 0; 0; 0; 0; 0; 0; 0; 0; 0; 0; 0; 0; 0; 0; 0; 0; 0; 0; 0; 0; 0.000000; 0.000000; 0.000000; 0.000000; 0.000000; 0.000000; 0.000000; 0.000000; 0.000000; 0.000000; 0.000000; 0.000000; 0.000000; 0.000000; 0.000000; 0.000000; 0.000000; 0.000000; 0.000000; 0.000000; 0.000000; 0.000000; 0.000000; 0.000000; 0.000000; 0.000000; 4917; 0
0; 3481411604;1571.010070; 2064; 1996; 3072; 1658; 1695; 1654; 1607; 1779; 12378; 0000; 1705; 1671; 0770; 2745; 0000; 0000; 20673; 0000; 0120; 50.026627; 1516;  9.764759;  24.234840; -1001.770508;  0.160097; -0.307775; -0.099044;  0.524297;  4.410884;  0.000000;  558.000000; -1385.000000;  -2114; -2615; -38043; 0000; 0000; -13887; -24523; 000000;  0.446936; -1.163555;  0.000000; 0000; 0000; 0000; 0000; 0000; 290717696; 000; 000; 000; 000; 255; 255; 255; 255; 156; 116; -3.662855; -700.453613; -66; -11; -19; -10.000000; 000; 000; 000;  0.000000; 0000; 0000; 0000; 0000; 0209; 0.000000; 0000; 0209;  0.000000;  0.000000;  0.000000; 0; 0;  1.500000;-0.045656;-0.019237;-0.036905;  0.000000;  0.000000;  0.000000; 0;  0.002670;  0.000853; -1.857204;  0.000052; -0.000074; -0.000028;  209; 1570.996558; 0066;  150.000000;  48.000000; -106409.000000; 0209; 0.000000; 0.000000; 0.000000 ; 28805; 0.000000; 0.000000; 0.000000; 0.000000; 0.000000; 0.000000; 0.000000; 0.000000; 0.000000; 0.000000; 0.000000; 0.000000; 0000; 0000; -0.282505; 0.959265; -0.001551; -0.959262; -0.282508; -0.002274; -0.002619; 0.000845; 0.999996; 0.000000; 0.000000; 0.000000; 0; 0.000000; 0.000000; 0.000000; 0.000000; -1; 88; 72; 0; 51; 24; 0; 85; 24; 0; 119; 24; 0; 149; 24; 0; 23; 54; 0; 51; 54; 0; 85; 54; 0; 119; 54; 0; 149; 54; 1; 8; 77; 1; 33; 106; 0; 85; 90; 0; 119; 90; 0; 149; 90; 0; 23; 119; 1; 38; 119; 0; 85; 119; 0; 119; 119; 0; 149; 119; 0; 0; 0; 0; 0; 0; 0; 0; 0; 0; 0; 0; 0; 0; 0; 0; 0; 0; 0; 0; 0; 0; 0; 0; 0; 0; 0; 0; 0; 0; 0; 0; 0; 0; 0; 0; 0; 0; 0; 0; 0; 0; 0; 0; 0; 0; 0; 0; 0; 0; 0; 0; 0; 0; 0; 0.000000; 0.000000; 0.000000; 0.000000; 0.000000; 0.000000; 0.000000; 0.000000; 0.000000; 0.000000; 0.000000; 0.000000; 0.000000; 0.000000; 0.000000; 0.000000; 0.000000; 0.000000; 0.000000; 0.000000; 0.000000; 0.000000; 0.000000; 0.000000; 0.000000; 0.000000; 4973; 0
0; 3481411604;1571.015037; 2064; 2000; 3068; 1658; 1694; 1654; 1608; 1777; 12378; 0000; 1705; 1671; 0000; 0000; 3758; 0000; 20810; 0000; 0120; 50.026543; 1516;  8.263586;  22.913292; -1001.862793;  0.110584; -0.013625; -0.099044;  0.524316;  4.410895;  0.000000;  472.000000; -1310.000000;  -2114; -2615; -38043; 0000; 0000; -13887; -24523; 000000;  0.446936; -1.163555;  0.000000; 0000; 0000; 0000; 0000; 0000; 290717696; 000; 000; 000; 000; 255; 255; 255; 255; 156; 116; -3.662855; -700.453613; -66; -11; -19; -10.000000; 000; 000; 000;  0.000000; 0000; 0000; 0000; 0000; 0209; 0.000000; 0000; 0209;  0.000000;  0.000000;  0.000000; 0; 0;  1.500000;-0.045656;-0.019237;-0.036905;  0.000000;  0.000000;  0.000000; 0;  0.002670;  0.000853; -1.857204;  0.000035; -0.000049; -0.000028;  209; 1570.996558; 0066;  149.000000;  48.000000; -106409.000000; 0209; 0.000000; 0.000000; 0.000000 ; 28805; 0.000000; 0.000000; 0.000000; 0.000000; 0.000000; 0.000000; 0.000000; 0.000000; 0.000000; 0.000000; 0.000000; 0.000000; 0000; 0000; -0.282504; 0.959265; -0.001549; -0.959262; -0.282507; -0.002267; -0.002612; 0.000845; 0.999996; 0.000000; 0.000000; 0.000000; 0; 0.000000; 0.000000; 0.000000; 0.000000; -1; 88; 72; 0; 51; 24; 0; 85; 24; 0; 119; 24; 0; 149; 24; 0; 23; 54; 0; 51; 54; 0; 85; 54; 0; 119; 54; 0; 149; 54; 1; 8; 77; 1; 33; 106; 0; 85; 90; 0; 119; 90; 0; 149; 90; 0; 23; 119; 1; 38; 119; 0; 85; 119; 0; 119; 119; 0; 149; 119; 0; 0; 0; 0; 0; 0; 0; 0; 0; 0; 0; 0; 0; 0; 0; 0; 0; 0; 0; 0; 0; 0; 0; 0; 0; 0; 0; 0; 0; 0; 0; 0; 0; 0; 0; 0; 0; 0; 0; 0; 0; 0; 0; 0; 0; 0; 0; 0; 0; 0; 0; 0; 0; 0; 0; 0.000000; 0.000000; 0.000000; 0.000000; 0.000000; 0.000000; 0.000000; 0.000000; 0.000000; 0.000000; 0.000000; 0.000000; 0.000000; 0.000000; 0.000000; 0.000000; 0.000000; 0.000000; 0.000000; 0.000000; 0.000000; 0.000000; 0.000000; 0.000000; 0.000000; 0.000000; 4931; 0
0; 2407669780;1571.020121; 2064; 2000; 3072; 1657; 1694; 1654; 1603; 1777; 12378; 0000; 1705; 1671; 0000; 0000; 3758; 0000; 20945; 0000; 0120; 50.026459; 1516;  9.283976;  21.972458; -1003.609131; -0.028519; -0.054085; -0.099069;  0.524329;  4.410901;  0.000000;  529.000000; -1254.000000;  -2114; -2615; -38043; 0000; 0000; -13887; -24523; 000000;  0.446936; -1.163555;  0.000000; 0000; 0000; 0000; 0000; 0000; 290717696; 000; 000; 000; 000; 255; 255; 255; 255; 156; 116; -3.662855; -700.453613; -66; -11; -19; -10.000000; 000; 000; 000;  0.000000; 0000; 0000; 0000; 0000; 0209; 0.000000; 0000; 0209;  0.000000;  0.000000;  0.000000; 0; 0;  1.500000;-0.045656;-0.019237;-0.036905;  0.000000;  0.000000;  0.000000; 0;  0.002619;  0.000845; -1.857202;  0.000035; -0.000049; -0.000028;  209; 1571.013165; 0066;  149.000000;  47.000000; -106409.000000; 0209; 0.000000; 0.000000; 0.000000 ; 28805; 0.000000; 0.000000; 0.000000; 0.000000; 0.000000; 0.000000; 0.000000; 0.000000; 0.000000; 0.000000; 0.000000; 0.000000; 0000; 0000; -0.282504; 0.959265; -0.001537; -0.959263; -0.282507; -0.002262; -0.002604; 0.000836; 0.999996; 0.000000; 0.000000; 0.000000; 0; 0.000000; 0.000000; 0.000000; 0.000000; -1; 88; 72; 0; 51; 24; 0; 85; 24; 0; 119; 24; 0; 149; 24; 0; 23; 54; 0; 51; 54; 0; 85; 54; 0; 119; 54; 0; 149; 54; 1; 8; 77; 1; 33; 106; 0; 85; 90; 0; 119; 90; 0; 149; 90; 0; 23; 119; 1; 38; 119; 0; 85; 119; 0; 119; 119; 0; 149; 119; 0; 0; 0; 0; 0; 0; 0; 0; 0; 0; 0; 0; 0; 0; 0; 0; 0; 0; 0; 0; 0; 0; 0; 0; 0; 0; 0; 0; 0; 0; 0; 0; 0; 0; 0; 0; 0; 0; 0; 0; 0; 0; 0; 0; 0; 0; 0; 0; 0; 0; 0; 0; 0; 0; 0; 0.000000; 0.000000; 0.000000; 0.000000; 0.000000; 0.000000; 0.000000; 0.000000; 0.000000; 0.000000; 0.000000; 0.000000; 0.000000; 0.000000; 0.000000; 0.000000; 0.000000; 0.000000; 0.000000; 0.000000; 0.000000; 0.000000; 0.000000; 0.000000; 0.000000; 0.000000; 5045; 0
0; 2407669780;1571.025051; 2064; 2000; 3068; 1658; 1694; 1654; 1606; 1775; 12378; 0000; 1705; 1672; 0000; 0000; 3758; 0000; 21083; 0000; 0120; 50.026375; 1515;  8.499388;  20.321445; -1000.898438;  0.036729;  0.017558; -0.099032;  0.524334;  4.410912;  0.000000;  486.000000; -1163.000000;  -2114; -2615; -38043; 0000; 0000; -13887; -24523; 000000;  0.446936; -1.163555;  0.000000; 0000; 0000; 0000; 0000; 0000; 290717696; 000; 000; 000; 000; 255; 255; 255; 255; 156; 116; -3.662855; -700.453613; -66; -11; -19; -10.000000; 000; 000; 000;  0.000000; 0000; 0000; 0000; 0000; 0209; 0.000000; 0000; 0209;  0.000000;  0.000000;  0.000000; 0; 0;  1.500000;-0.045656;-0.019237;-0.036905;  0.000000;  0.000000;  0.000000; 0;  0.002619;  0.000845; -1.857202;  0.000035; -0.000049; -0.000028;  209; 1571.013165; 0066;  148.000000;  47.000000; -106409.000000; 0209; 0.000000; 0.000000; 0.000000 ; 28805; 0.000000; 0.000000; 0.000000; 0.000000; 0.000000; 0.000000; 0.000000; 0.000000; 0.000000; 0.000000; 0.000000; 0.000000; 0000; 0000; -0.282503; 0.959265; -0.001537; -0.959263; -0.282506; -0.002258; -0.002600; 0.000836; 0.999996; 0.000000; 0.000000; 0.000000; 0; 0.000000; 0.000000; 0.000000; 0.000000; -1; 88; 72; 0; 51; 24; 0; 85; 24; 0; 119; 24; 0; 149; 24; 0; 23; 54; 0; 51; 54; 0; 85; 54; 0; 119; 54; 0; 149; 54; 1; 8; 77; 1; 33; 106; 0; 85; 90; 0; 119; 90; 0; 149; 90; 0; 23; 119; 1; 38; 119; 0; 85; 119; 0; 119; 119; 0; 149; 119; 0; 0; 0; 0; 0; 0; 0; 0; 0; 0; 0; 0; 0; 0; 0; 0; 0; 0; 0; 0; 0; 0; 0; 0; 0; 0; 0; 0; 0; 0; 0; 0; 0; 0; 0; 0; 0; 0; 0; 0; 0; 0; 0; 0; 0; 0; 0; 0; 0; 0; 0; 0; 0; 0; 0; 0.000000; 0.000000; 0.000000; 0.000000; 0.000000; 0.000000; 0.000000; 0.000000; 0.000000; 0.000000; 0.000000; 0.000000; 0.000000; 0.000000; 0.000000; 0.000000; 0.000000; 0.000000; 0.000000; 0.000000; 0.000000; 0.000000; 0.000000; 0.000000; 0.000000; 0.000000; 4893; 0
0; 2407669780;1571.030277; 2064; 2000; 3068; 1658; 1695; 1654; 1609; 1781; 12378; 0000; 1705; 1671; 0000; 0000; 3758; 0000; 21217; 0000; 0120; 50.026291; 1516;  9.256897;  19.621483; -1000.824219; -0.034722;  0.054194; -0.099048;  0.524335;  4.410917;  0.000000;  529.000000; -1123.000000;  -2114; -2615; -38043; 0000; 0000; -13887; -24523; 000000;  0.446936; -1.163555;  0.000000; 0000; 0000; 0000; 0000; 0000; 290717696; 000; 000; 000; 000; 255; 255; 255; 255; 156; 116; -3.662855; -700.453613; -66; -11; -19; -10.000000; 000; 000; 000;  0.000000; 0000; 0000; 0000; 0000; 0209; 0.000000; 0000; 0209;  0.000000;  0.000000;  0.000000; 0; 0;  1.500000;-0.045656;-0.019237;-0.036905;  0.000000;  0.000000;  0.000000; 0;  0.002619;  0.000845; -1.857202;  0.000023; -0.000036; -0.000028;  209; 1571.013165; 0066;  149.000000;  47.000000; -106409.000000; 0209; 0.000000; 0.000000; 0.000000 ; 28805; 0.000000; 0.000000; 0.000000; 0.000000; 0.000000; 0.000000; 0.000000; 0.000000; 0.000000; 0.000000; 0.000000; 0.000000; 0000; 0000; -0.282502; 0.959265; -0.001534; -0.959263; -0.282505; -0.002260; -0.002602; 0.000833; 0.999996; 0.000000; 0.000000; 0.000000; 0; 0.000000; 0.000000; 0.000000; 0.000000; -1; 88; 72; 0; 51; 24; 0; 85; 24; 0; 119; 24; 0; 149; 24; 0; 23; 54; 0; 51; 54; 0; 85; 54; 0; 119; 54; 0; 149; 54; 1; 8; 77; 1; 33; 106; 0; 85; 90; 0; 119; 90; 0; 149; 90; 0; 23; 119; 1; 38; 119; 0; 85; 119; 0; 119; 119; 0; 149; 119; 0; 0; 0; 0; 0; 0; 0; 0; 0; 0; 0; 0; 0; 0; 0; 0; 0; 0; 0; 0; 0; 0; 0; 0; 0; 0; 0; 0; 0; 0; 0; 0; 0; 0; 0; 0; 0; 0; 0; 0; 0; 0; 0; 0; 0; 0; 0; 0; 0; 0; 0; 0; 0; 0; 0; 0.000000; 0.000000; 0.000000; 0.000000; 0.000000; 0.000000; 0.000000; 0.000000; 0.000000; 0.000000; 0.000000; 0.000000; 0.000000; 0.000000; 0.000000; 0.000000; 0.000000; 0.000000; 0.000000; 0.000000; 0.000000; 0.000000; 0.000000; 0.000000; 0.000000; 0.000000; 5184; 0
0; 2407669780;1571.035025; 2064; 2000; 3072; 1658; 1694; 1654; 1607; 1775; 12378; 0000; 1705; 1671; 0000; 0000; 3758; 0000; 21355; 0000; 0120; 50.027779; 1516;  9.397957;  20.364307; -1001.674316;  0.053844; -0.084962; -0.099065;  0.524339;  4.410923;  0.000000;  537.000000; -1164.000000;  -2114; -2615; -38043; 0000; 0000; -13887; -24523; 000000;  0.446936; -1.163555;  0.000000; 0000; 0000; 0000; 0000; 0000; 290717696; 000; 000; 000; 000; 255; 255; 255; 255; 156; 116; -3.662855; -700.453613; -66; -11; -19; -10.000000; 000; 000; 000;  0.000000; 0000; 0000; 0000; 0000; 0209; 0.000000; 0000; 0209;  0.000000;  0.000000;  0.000000; 0; 0;  1.500000;-0.045656;-0.019237;-0.036905;  0.000000;  0.000000;  0.000000; 0;  0.002600;  0.000836; -1.857200;  0.000023; -0.000036; -0.000028;  209; 1571.029804; 0066;  148.000000;  47.000000; -106409.000000; 0209; 0.000000; 0.000000; 0.000000 ; 28805; 0.000000; 0.000000; 0.000000; 0.000000; 0.000000; 0.000000; 0.000000; 0.000000; 0.000000; 0.000000; 0.000000; 0.000000; 0000; 0000; -0.282502; 0.959266; -0.001533; -0.959263; -0.282505; -0.002250; -0.002591; 0.000835; 0.999996; 0.000000; 0.000000; 0.000000; 0; 0.000000; 0.000000; 0.000000; 0.000000; -1; 88; 72; 0; 51; 24; 0; 85; 24; 0; 119; 24; 0; 149; 24; 0; 23; 54; 0; 51; 54; 0; 85; 54; 0; 119; 54; 0; 149; 54; 1; 8; 77; 1; 33; 106; 0; 85; 90; 0; 119; 90; 0; 149; 90; 0; 23; 119; 1; 38; 119; 0; 85; 119; 0; 119; 119; 0; 149; 119; 0; 0; 0; 0; 0; 0; 0; 0; 0; 0; 0; 0; 0; 0; 0; 0; 0; 0; 0; 0; 0; 0; 0; 0; 0; 0; 0; 0; 0; 0; 0; 0; 0; 0; 0; 0; 0; 0; 0; 0; 0; 0; 0; 0; 0; 0; 0; 0; 0; 0; 0; 0; 0; 0; 0; 0.000000; 0.000000; 0.000000; 0.000000; 0.000000; 0.000000; 0.000000; 0.000000; 0.000000; 0.000000; 0.000000; 0.000000; 0.000000; 0.000000; 0.000000; 0.000000; 0.000000; 0.000000; 0.000000; 0.000000; 0.000000; 0.000000; 0.000000; 0.000000; 0.000000; 0.000000; 4713; 0
0; 2407669780;1571.040080; 2064; 2000; 3072; 1658; 1694; 1654; 1604; 1777; 12378; 0000; 1705; 1671; 0000; 0000; 3758; 0000; 21490; 0000; 0120; 50.027695; 1515;  8.879354;  20.174854; -1001.142578;  0.204478; -0.057362; -0.099047;  0.524343;  4.410931;  0.000000;  508.000000; -1154.000000;  -2114; -2615; -38043; 0000; 0000; -13887; -24523; 000000;  0.446936; -1.163555;  0.000000; 0000; 0000; 0000; 0000; 0000; 290717696; 000; 000; 000; 000; 255; 255; 255; 255; 156; 116; -3.662855; -700.453613; -66; -11; -19; -10.000000; 000; 000; 000;  0.000000; 0000; 0000; 0000; 0000; 0209; 0.000000; 0000; 0209;  0.000000;  0.000000;  0.000000; 0; 0;  1.500000;-0.045656;-0.019237;-0.036905;  0.000000;  0.000000;  0.000000; 0;  0.002600;  0.000836; -1.857200;  0.000023; -0.000036; -0.000028;  209; 1571.029804; 0066;  147.000000;  48.000000; -106409.000000; 0209; 0.000000; 0.000000; 0.000000 ; 28806; 0.000000; 0.000000; 0.000000; 0.000000; 0.000000; 0.000000; 0.000000; 0.000000; 0.000000; 0.000000; 0.000000; 0.000000; 0000; 0000; -0.282501; 0.959266; -0.001546; -0.959264; -0.282504; -0.002236; -0.002582; 0.000851; 0.999996; 0.000000; 0.000000; 0.000000; 0; 0.000000; 0.000000; 0.000000; 0.000000; -1; 88; 72; 0; 51; 24; 0; 85; 24; 0; 119; 24; 0; 149; 24; 0; 23; 54; 0; 51; 54; 0; 85; 54; 0; 119; 54; 0; 149; 54; 1; 8; 77; 1; 33; 106; 0; 85; 90; 0; 119; 90; 0; 149; 90; 0; 23; 119; 1; 38; 119; 0; 85; 119; 0; 119; 119; 0; 149; 119; 0; 0; 0; 0; 0; 0; 0; 0; 0; 0; 0; 0; 0; 0; 0; 0; 0; 0; 0; 0; 0; 0; 0; 0; 0; 0; 0; 0; 0; 0; 0; 0; 0; 0; 0; 0; 0; 0; 0; 0; 0; 0; 0; 0; 0; 0; 0; 0; 0; 0; 0; 0; 0; 0; 0; 0.000000; 0.000000; 0.000000; 0.000000; 0.000000; 0.000000; 0.000000; 0.000000; 0.000000; 0.000000; 0.000000; 0.000000; 0.000000; 0.000000; 0.000000; 0.000000; 0.000000; 0.000000; 0.000000; 0.000000; 0.000000; 0.000000; 0.000000; 0.000000; 0.000000; 0.000000; 5014; 0
0; 2407669780;1571.044990; 2064; 2000; 3072; 1658; 1694; 1654; 1607; 1777; 12378; 0000; 1705; 1672; 0000; 0000; 3758; 0000; 21627; 0000; 0120; 50.027611; 1516;  9.077055;  20.784771; -1004.418457;  0.106626;  0.000373; -0.099049;  0.524350;  4.410938;  0.000000;  517.000000; -1185.000000;  -2114; -2615; -38043; 0000; 0000; -13887; -24523; 000000;  0.446936; -1.163555;  0.000000; 0000; 0000; 0000; 0000; 0000; 290717696; 000; 000; 000; 000; 255; 255; 255; 255; 156; 116; -3.662855; -700.453613; -66; -11; -19; -10.000000; 000; 000; 000;  0.000000; 0000; 0000; 0000; 0000; 0209; 0.000000; 0000; 0209;  0.000000;  0.000000;  0.000000; 0; 0;  1.500000;-0.045656;-0.019237;-0.036905;  0.000000;  0.000000;  0.000000; 0;  0.002600;  0.000836; -1.857200;  0.000023; -0.000036; -0.000028;  209; 1571.029804; 0066;  147.000000;  49.000000; -106409.000000; 0209; 0.000000; 0.000000; 0.000000 ; 28806; 0.000000; 0.000000; 0.000000; 0.000000; 0.000000; 0.000000; 0.000000; 0.000000; 0.000000; 0.000000; 0.000000; 0.000000; 0000; 0000; -0.282500; 0.959266; -0.001550; -0.959264; -0.282503; -0.002231; -0.002578; 0.000857; 0.999996; 0.000000; 0.000000; 0.000000; 0; 0.000000; 0.000000; 0.000000; 0.000000; -1; 88; 72; 0; 51; 24; 0; 85; 24; 0; 119; 24; 0; 149; 24; 0; 23; 54; 0; 51; 54; 0; 85; 54; 0; 119; 54; 0; 149; 54; 1; 8; 77; 1; 33; 106; 0; 85; 90; 0; 119; 90; 0; 149; 90; 0; 23; 119; 1; 38; 119; 0; 85; 119; 0; 119; 119; 0; 149; 119; 0; 0; 0; 0; 0; 0; 0; 0; 0; 0; 0; 0; 0; 0; 0; 0; 0; 0; 0; 0; 0; 0; 0; 0; 0; 0; 0; 0; 0; 0; 0; 0; 0; 0; 0; 0; 0; 0; 0; 0; 0; 0; 0; 0; 0; 0; 0; 0; 0; 0; 0; 0; 0; 0; 0; 0.000000; 0.000000; 0.000000; 0.000000; 0.000000; 0.000000; 0.000000; 0.000000; 0.000000; 0.000000; 0.000000; 0.000000; 0.000000; 0.000000; 0.000000; 0.000000; 0.000000; 0.000000; 0.000000; 0.000000; 0.000000; 0.000000; 0.000000; 0.000000; 0.000000; 0.000000; 4871; 0
0; 2407669780;1571.051189; 2064; 2000; 3072; 1658; 1695; 1654; 1608; 1778; 12378; 0000; 1705; 1671; 0770; 2747; 0000; 0000; 21762; 0000; 0120; 50.027527; 1516;  9.221579;  20.559116; -1004.182617;  0.179420; -0.026221; -0.099054;  0.524356;  4.410945;  0.000000;  526.000000; -1172.000000;  -2114; -2615; -38043; 0000; 0000; -13887; -24523; 000000;  0.446936; -1.163555;  0.000000; 0000; 0000; 0000; 0000; 0000; 290717696; 000; 000; 000; 000; 255; 255; 255; 255; 156; 116; -3.662855; -700.453613; -66; -11; -19; -10.000000; 000; 000; 000;  0.000000; 0000; 0000; 0000; 0000; 0209; 0.000000; 0000; 0209;  17.825083; -3.361827;  0.000000; 1; 1;  1.500000;-0.045656;-0.019237;-0.036905;  0.000000;  0.000000;  0.000000; 0;  0.002578;  0.000857; -1.857197;  0.000019; -0.000005; -0.000028;  209; 1571.046412; 0066;  147.000000;  49.000000; -106409.000000; 0209; 0.000000; 0.000000; 0.000000 ; 28806; 0.000000; 0.000000; 0.000000; 0.000000; 0.000000; 0.000000; 0.000000; 0.000000; 0.000000; 0.000000; 0.000000; 0.000000; 0000; 0000; -0.282499; 0.959266; -0.001560; -0.959264; -0.282502; -0.002222; -0.002573; 0.000869; 0.999996; 0.000000; 0.000000; 0.000000; 0; 0.000000; 0.000000; 0.000000; 0.000000; -1; 88; 72; 0; 51; 24; 0; 85; 24; 0; 119; 24; 0; 149; 24; 0; 23; 54; 0; 51; 54; 0; 85; 54; 0; 119; 54; 0; 149; 54; 1; 8; 77; 1; 33; 106; 0; 85; 90; 0; 119; 90; 0; 149; 90; 0; 23; 119; 1; 38; 119; 0; 85; 119; 0; 119; 119; 0; 149; 119; 0; 0; 0; 0; 0; 0; 0; 0; 0; 0; 0; 0; 0; 0; 0; 0; 0; 0; 0; 0; 0; 0; 0; 0; 0; 0; 0; 0; 0; 0; 0; 0; 0; 0; 0; 0; 0; 0; 0; 0; 0; 0; 0; 0; 0; 0; 0; 0; 0; 0; 0; 0; 0; 0; 0; 0.000000; 0.000000; 0.000000; 0.000000; 0.000000; 0.000000; 0.000000; 0.000000; 0.000000; 0.000000; 0.000000; 0.000000; 0.000000; 0.000000; 0.000000; 0.000000; 0.000000; 0.000000; 0.000000; 0.000000; 0.000000; 0.000000; 0.000000; 0.000000; 0.000000; 0.000000; 6160; 0
0; 2407669780;1571.055011; 2064; 2000; 3072; 1658; 1694; 1654; 1609; 1777; 12347; 0000; 1705; 1671; 0000; 0000; 3758; 0000; 21897; 0000; 0120; 50.027443; 1515;  9.132664;  20.218151; -1003.736816;  0.106442; -0.024591; -0.099049;  0.524361;  4.410952;  0.000000;  521.000000; -1153.000000;  -2114; -2615; -38043; 0000; 0000; -13887; -24523; 000000;  0.446936; -1.163555;  0.000000; 0000; 0000; 0000; 0000; 0000; 290717696; 000; 000; 000; 000; 255; 255; 255; 255; 156; 116; -3.662855; -700.453613; -66; -11; -19; -10.000000; 000; 000; 000;  0.000000; 0000; 0000; 0000; 0000; 0209; 0.000000; 0000; 0209;  17.825083; -3.361827;  0.000000; 1; 1;  1.500000;-0.045656;-0.019237;-0.036905;  0.000000;  0.000000;  0.000000; 0;  0.002578;  0.000857; -1.857197;  0.000019; -0.000005; -0.000028;  209; 1571.046412; 0066;  147.000000;  50.000000; -106409.000000; 0209; 0.000000; 0.000000; 0.000000 ; 28806; 0.000000; 0.000000; 0.000000; 0.000000; 0.000000; 0.000000; 0.000000; 0.000000; 0.000000; 0.000000; 0.000000; 0.000000; 0000; 0000; -0.282499; 0.959266; -0.001566; -0.959264; -0.282502; -0.002215; -0.002567; 0.000876; 0.999996; 0.000000; 0.000000; 0.000000; 0; 0.000000; 0.000000; 0.000000; 0.000000; -1; 88; 72; 0; 51; 24; 0; 85; 24; 0; 119; 24; 0; 149; 24; 0; 23; 54; 0; 51; 54; 0; 85; 54; 0; 119; 54; 0; 149; 54; 1; 8; 77; 1; 33; 106; 0; 85; 90; 0; 119; 90; 0; 149; 90; 0; 23; 119; 1; 38; 119; 0; 85; 119; 0; 119; 119; 0; 149; 119; 0; 0; 0; 0; 0; 0; 0; 0; 0; 0; 0; 0; 0; 0; 0; 0; 0; 0; 0; 0; 0; 0; 0; 0; 0; 0; 0; 0; 0; 0; 0; 0; 0; 0; 0; 0; 0; 0; 0; 0; 0; 0; 0; 0; 0; 0; 0; 0; 0; 0; 0; 0; 0; 0; 0; 0.000000; 0.000000; 0.000000; 0.000000; 0.000000; 0.000000; 0.000000; 0.000000; 0.000000; 0.000000; 0.000000; 0.000000; 0.000000; 0.000000; 0.000000; 0.000000; 0.000000; 0.000000; 0.000000; 0.000000; 0.000000; 0.000000; 0.000000; 0.000000; 0.000000; 0.000000; 3787; 0
0; 2407669780;1571.060039; 2068; 2000; 3072; 1658; 1694; 1654; 1607; 1777; 12347; 0000; 1705; 1671; 0000; 0000; 3758; 0000; 22034; 0000; 0120; 50.027359; 1515;  10.667961;  20.387611; -1004.172119;  0.092964; -0.021698; -0.099052;  0.524366;  4.410950;  0.000000;  608.000000; -1163.000000;  -2114; -2615; -38043; 0000; 0000; -13887; -24523; 000000;  0.446936; -1.163555;  0.000000; 0000; 0000; 0000; 0000; 0000; 290717696; 000; 000; 000; 000; 255; 255; 255; 255; 156; 116; -3.662855; -700.453613; -66; -11; -19; -10.000000; 000; 000; 000;  0.000000; 0000; 0000; 0000; 0000; 0209; 0.000000; 0000; 0209;  17.825083; -3.361827;  0.000000; 1; 1;  1.500000;-0.045656;-0.019237;-0.036905;  0.000000;  0.000000;  0.000000; 0;  0.002578;  0.000857; -1.857197;  0.000019; -0.000005; -0.000028;  209; 1571.046412; 0066;  147.000000;  50.000000; -106409.000000; 0209; 0.000000; 0.000000; 0.000000 ; 28806; 0.000000; 0.000000; 0.000000; 0.000000; 0.000000; 0.000000; 0.000000; 0.000000; 0.000000; 0.000000; 0.000000; 0.000000; 0000; 0000; -0.282498; 0.959267; -0.001570; -0.959265; -0.282501; -0.002212; -0.002566; 0.000882; 0.999996; 0.000000; 0.000000; 0.000000; 0; 0.000000; 0.000000; 0.000000; 0.000000; -1; 88; 72; 0; 51; 24; 0; 85; 24; 0; 119; 24; 0; 149; 24; 0; 23; 54; 0; 51; 54; 0; 85; 54; 0; 119; 54; 0; 149; 54; 1; 8; 77; 1; 33; 106; 0; 85; 90; 0; 119; 90; 0; 149; 90; 0; 23; 119; 1; 38; 119; 0; 85; 119; 0; 119; 119; 0; 149; 119; 0; 0; 0; 0; 0; 0; 0; 0; 0; 0; 0; 0; 0; 0; 0; 0; 0; 0; 0; 0; 0; 0; 0; 0; 0; 0; 0; 0; 0; 0; 0; 0; 0; 0; 0; 0; 0; 0; 0; 0; 0; 0; 0; 0; 0; 0; 0; 0; 0; 0; 0; 0; 0; 0; 0; 0.000000; 0.000000; 0.000000; 0.000000; 0.000000; 0.000000; 0.000000; 0.000000; 0.000000; 0.000000; 0.000000; 0.000000; 0.000000; 0.000000; 0.000000; 0.000000; 0.000000; 0.000000; 0.000000; 0.000000; 0.000000; 0.000000; 0.000000; 0.000000; 0.000000; 0.000000; 4991; 0
0; 2407669780;1571.064984; 2068; 2000; 3076; 1658; 1694; 1654; 1608; 1779; 12347; 0000; 1705; 1671; 0000; 0000; 3758; 0000; 22169; 0000; 0120; 50.027275; 1515;  11.633337;  20.485523; -1004.665527;  0.143115; -0.035309; -0.099053;  0.524372;  4.410943;  0.000000;  663.000000; -1168.000000;  -2114; -2615; -38043; 0000; 0000; -13887; -24523; 000000;  0.446936; -1.163555;  0.000000; 0000; 0000; 0000; 0000; 0000; 290717696; 000; 000; 000; 000; 255; 255; 255; 255; 156; 116; -3.662855; -700.453613; -66; -11; -19; -10.000000; 000; 000; 000;  0.000000; 0000; 0000; 0000; 0000; 0209; 0.000000; 0000; 0209;  17.825083; -3.361827;  0.000000; 1; 1;  1.500000;-0.045656;-0.019237;-0.036905;  0.000000;  0.000000;  0.000000; 0;  0.002578;  0.000857; -1.857197;  0.000038; -0.000005; -0.000028;  209; 1571.046412; 0066;  147.000000;  51.000000; -106409.000000; 0209; 0.000000; 0.000000; 0.000000 ; 28806; 0.000000; 0.000000; 0.000000; 0.000000; 0.000000; 0.000000; 0.000000; 0.000000; 0.000000; 0.000000; 0.000000; 0.000000; 0000; 0000; -0.282497; 0.959267; -0.001580; -0.959265; -0.282500; -0.002210; -0.002566; 0.000891; 0.999996; 0.000000; 0.000000; 0.000000; 0; 0.000000; 0.000000; 0.000000; 0.000000; -1; 88; 72; 0; 51; 24; 0; 85; 24; 0; 119; 24; 0; 149; 24; 0; 23; 54; 0; 51; 54; 0; 85; 54; 0; 119; 54; 0; 149; 54; 1; 8; 77; 1; 33; 106; 0; 85; 90; 0; 119; 90; 0; 149; 90; 0; 23; 119; 1; 38; 119; 0; 85; 119; 0; 119; 119; 0; 149; 119; 0; 0; 0; 0; 0; 0; 0; 0; 0; 0; 0; 0; 0; 0; 0; 0; 0; 0; 0; 0; 0; 0; 0; 0; 0; 0; 0; 0; 0; 0; 0; 0; 0; 0; 0; 0; 0; 0; 0; 0; 0; 0; 0; 0; 0; 0; 0; 0; 0; 0; 0; 0; 0; 0; 0; 0.000000; 0.000000; 0.000000; 0.000000; 0.000000; 0.000000; 0.000000; 0.000000; 0.000000; 0.000000; 0.000000; 0.000000; 0.000000; 0.000000; 0.000000; 0.000000; 0.000000; 0.000000; 0.000000; 0.000000; 0.000000; 0.000000; 0.000000; 0.000000; 0.000000; 0.000000; 4905; 0
0; 2407669780;1571.070046; 2064; 2000; 3076; 1658; 1694; 1654; 1604; 1777; 12347; 0000; 1705; 1672; 0000; 0000; 3758; 0000; 22306; 0000; 0120; 50.027191; 1515;  11.766235;  20.457649; -1005.849854;  0.136470;  0.116264; -0.099050;  0.524377;  4.410935;  0.000000;  670.000000; -1165.000000;  -2114; -2615; -38043; 0000; 0000; -13887; -24523; 000000;  0.446936; -1.163555;  0.000000; 0000; 0000; 0000; 0000; 0000; 290717696; 000; 000; 000; 000; 255; 255; 255; 255; 156; 116; -3.662855; -700.453613; -66; -11; -19; -10.000000; 000; 000; 000;  0.000000; 0000; 0000; 0000; 0000; 0209; 0.000000; 0000; 0209;  0.000000;  0.000000;  0.000000; 0; 0;  1.500000;-0.045656;-0.019237;-0.036905;  0.000000;  0.000000;  0.000000; 0;  0.002566;  0.000882; -1.857194;  0.000038; -0.000005; -0.000028;  209; 1571.063039; 0066;  147.000000;  51.000000; -106409.000000; 0209; 0.000000; 0.000000; 0.000000 ; 28806; 0.000000; 0.000000; 0.000000; 0.000000; 0.000000; 0.000000; 0.000000; 0.000000; 0.000000; 0.000000; 0.000000; 0.000000; 0000; 0000; -0.282496; 0.959267; -0.001592; -0.959265; -0.282499; -0.002221; -0.002581; 0.000900; 0.999996; 0.000000; 0.000000; 0.000000; 0; 0.000000; 0.000000; 0.000000; 0.000000; -1; 88; 72; 0; 51; 24; 0; 85; 24; 0; 119; 24; 0; 149; 24; 0; 23; 54; 0; 51; 54; 0; 85; 54; 0; 119; 54; 0; 149; 54; 1; 8; 77; 1; 33; 106; 0; 85; 90; 0; 119; 90; 0; 149; 90; 0; 23; 119; 1; 38; 119; 0; 85; 119; 0; 119; 119; 0; 149; 119; 0; 0; 0; 0; 0; 0; 0; 0; 0; 0; 0; 0; 0; 0; 0; 0; 0; 0; 0; 0; 0; 0; 0; 0; 0; 0; 0; 0; 0; 0; 0; 0; 0; 0; 0; 0; 0; 0; 0; 0; 0; 0; 0; 0; 0; 0; 0; 0; 0; 0; 0; 0; 0; 0; 0; 0.000000; 0.000000; 0.000000; 0.000000; 0.000000; 0.000000; 0.000000; 0.000000; 0.000000; 0.000000; 0.000000; 0.000000; 0.000000; 0.000000; 0.000000; 0.000000; 0.000000; 0.000000; 0.000000; 0.000000; 0.000000; 0.000000; 0.000000; 0.000000; 0.000000; 0.000000; 5022; 0
0; 2407669780;1571.074981; 2064; 2000; 3072; 1657; 1694; 1654; 1605; 1777; 12347; 0000; 1705; 1671; 0000; 0000; 3758; 0000; 22441; 0000; 0120; 50.027107; 1515;  11.638960;  20.497372; -1006.499268; -0.024549;  0.072697; -0.099051;  0.524383;  4.410929;  0.000000;  662.000000; -1166.000000;  -2114; -2615; -38043; 0000; 0000; -13887; -24523; 000000;  0.446936; -1.163555;  0.000000; 0000; 0000; 0000; 0000; 0000; 290717696; 000; 000; 000; 000; 255; 255; 255; 255; 156; 116; -3.662855; -700.453613; -66; -11; -19; -10.000000; 000; 000; 000;  0.000000; 0000; 0000; 0000; 0000; 0209; 0.000000; 0000; 0209;  0.000000;  0.000000;  0.000000; 0; 0;  1.500000;-0.045656;-0.019237;-0.036905;  0.000000;  0.000000;  0.000000; 0;  0.002566;  0.000882; -1.857194;  0.000038; -0.000005; -0.000028;  209; 1571.063039; 0066;  148.000000;  51.000000; -106409.000000; 0209; 0.000000; 0.000000; 0.000000 ; 28806; 0.000000; 0.000000; 0.000000; 0.000000; 0.000000; 0.000000; 0.000000; 0.000000; 0.000000; 0.000000; 0.000000; 0.000000; 0000; 0000; -0.282496; 0.959267; -0.001590; -0.959265; -0.282499; -0.002232; -0.002590; 0.000895; 0.999996; 0.000000; 0.000000; 0.000000; 0; 0.000000; 0.000000; 0.000000; 0.000000; -1; 88; 72; 0; 51; 24; 0; 85; 24; 0; 119; 24; 0; 149; 24; 0; 23; 54; 0; 51; 54; 0; 85; 54; 0; 119; 54; 0; 149; 54; 1; 8; 77; 1; 33; 106; 0; 85; 90; 0; 119; 90; 0; 149; 90; 0; 23; 119; 1; 38; 119; 0; 85; 119; 0; 119; 119; 0; 149; 119; 0; 0; 0; 0; 0; 0; 0; 0; 0; 0; 0; 0; 0; 0; 0; 0; 0; 0; 0; 0; 0; 0; 0; 0; 0; 0; 0; 0; 0; 0; 0; 0; 0; 0; 0; 0; 0; 0; 0; 0; 0; 0; 0; 0; 0; 0; 0; 0; 0; 0; 0; 0; 0; 0; 0; 0.000000; 0.000000; 0.000000; 0.000000; 0.000000; 0.000000; 0.000000; 0.000000; 0.000000; 0.000000; 0.000000; 0.000000; 0.000000; 0.000000; 0.000000; 0.000000; 0.000000; 0.000000; 0.000000; 0.000000; 0.000000; 0.000000; 0.000000; 0.000000; 0.000000; 0.000000; 4896; 0
0; 2407669780;1571.080199; 2064; 2000; 3072; 1658; 1694; 1654; 1606; 1775; 12347; 0000; 1705; 1671; 0000; 0000; 3758; 0000; 22578; 0000; 0120; 50.027023; 1516;  9.269543;  20.464687; -1006.053955;  0.033854;  0.130045; -0.099052;  0.524389;  4.410934;  0.000000;  527.000000; -1165.000000;  -2114; -2615; -38043; 0000; 0000; -13887; -24523; 000000;  0.446936; -1.163555;  0.000000; 0000; 0000; 0000; 0000; 0000; 290717696; 000; 000; 000; 000; 255; 255; 255; 255; 156; 116; -3.662855; -700.453613; -66; -11; -19; -10.000000; 000; 000; 000;  0.000000; 0000; 0000; 0000; 0000; 0209; 0.000000; 0000; 0209;  0.000000;  0.000000;  0.000000; 0; 0;  1.500000;-0.045656;-0.019237;-0.036905;  0.000000;  0.000000;  0.000000; 0;  0.002566;  0.000882; -1.857194;  0.000036;  0.000006; -0.000028;  209; 1571.063039; 0066;  148.000000;  51.000000; -106409.000000; 0209; 0.000000; 0.000000; 0.000000 ; 28806; 0.000000; 0.000000; 0.000000; 0.000000; 0.000000; 0.000000; 0.000000; 0.000000; 0.000000; 0.000000; 0.000000; 0.000000; 0000; 0000; -0.282495; 0.959267; -0.001592; -0.959265; -0.282498; -0.002240; -0.002599; 0.000895; 0.999996; 0.000000; 0.000000; 0.000000; 0; 0.000000; 0.000000; 0.000000; 0.000000; -1; 88; 72; 0; 51; 24; 0; 85; 24; 0; 119; 24; 0; 149; 24; 0; 23; 54; 0; 51; 54; 0; 85; 54; 0; 119; 54; 0; 149; 54; 1; 8; 77; 1; 33; 106; 0; 85; 90; 0; 119; 90; 0; 149; 90; 0; 23; 119; 1; 38; 119; 0; 85; 119; 0; 119; 119; 0; 149; 119; 0; 0; 0; 0; 0; 0; 0; 0; 0; 0; 0; 0; 0; 0; 0; 0; 0; 0; 0; 0; 0; 0; 0; 0; 0; 0; 0; 0; 0; 0; 0; 0; 0; 0; 0; 0; 0; 0; 0; 0; 0; 0; 0; 0; 0; 0; 0; 0; 0; 0; 0; 0; 0; 0; 0; 0.000000; 0.000000; 0.000000; 0.000000; 0.000000; 0.000000; 0.000000; 0.000000; 0.000000; 0.000000; 0.000000; 0.000000; 0.000000; 0.000000; 0.000000; 0.000000; 0.000000; 0.000000; 0.000000; 0.000000; 0.000000; 0.000000; 0.000000; 0.000000; 0.000000; 0.000000; 5176; 0
0; 2407669780;1571.085047; 2064; 2000; 3072; 1658; 1694; 1654; 1607; 1776; 12347; 0000; 1705; 1671; 0000; 0000; 3758; 0000; 22713; 0000; 0120; 50.026939; 1517;  8.548027;  20.397373; -1003.700195; -0.035626;  0.048052; -0.099051;  0.524394;  4.410945;  0.000000;  487.000000; -1164.000000;  -2114; -2615; -38043; 0000; 0000; -13887; -24523; 000000;  0.446936; -1.163555;  0.000000; 0000; 0000; 0000; 0000; 0000; 290717696; 000; 000; 000; 000; 255; 255; 255; 255; 156; 116; -3.662855; -700.453613; -66; -11; -19; -10.000000; 000; 000; 000;  0.000000; 0000; 0000; 0000; 0000; 0209; 0.000000; 0000; 0209;  0.000000;  0.000000;  0.000000; 0; 0;  1.500000;-0.045656;-0.019237;-0.036905;  0.000000;  0.000000;  0.000000; 0;  0.002590;  0.000895; -1.857192;  0.000036;  0.000006; -0.000028;  209; 1571.079663; 0066;  148.000000;  50.000000; -106409.000000; 0209; 0.000000; 0.000000; 0.000000 ; 28806; 0.000000; 0.000000; 0.000000; 0.000000; 0.000000; 0.000000; 0.000000; 0.000000; 0.000000; 0.000000; 0.000000; 0.000000; 0000; 0000; -0.282494; 0.959268; -0.001586; -0.959266; -0.282497; -0.002241; -0.002597; 0.000889; 0.999996; 0.000000; 0.000000; 0.000000; 0; 0.000000; 0.000000; 0.000000; 0.000000; -1; 88; 72; 0; 51; 24; 0; 85; 24; 0; 119; 24; 0; 149; 24; 0; 23; 54; 0; 51; 54; 0; 85; 54; 0; 119; 54; 0; 149; 54; 1; 8; 77; 1; 33; 106; 0; 85; 90; 0; 119; 90; 0; 149; 90; 0; 23; 119; 1; 38; 119; 0; 85; 119; 0; 119; 119; 0; 149; 119; 0; 0; 0; 0; 0; 0; 0; 0; 0; 0; 0; 0; 0; 0; 0; 0; 0; 0; 0; 0; 0; 0; 0; 0; 0; 0; 0; 0; 0; 0; 0; 0; 0; 0; 0; 0; 0; 0; 0; 0; 0; 0; 0; 0; 0; 0; 0; 0; 0; 0; 0; 0; 0; 0; 0; 0.000000; 0.000000; 0.000000; 0.000000; 0.000000; 0.000000; 0.000000; 0.000000; 0.000000; 0.000000; 0.000000; 0.000000; 0.000000; 0.000000; 0.000000; 0.000000; 0.000000; 0.000000; 0.000000; 0.000000; 0.000000; 0.000000; 0.000000; 0.000000; 0.000000; 0.000000; 4809; 0
0; 2407669780;1571.090044; 2064; 2000; 3068; 1658; 1695; 1654; 1605; 1778; 12347; 0000; 1705; 1671; 0768; 2748; 0000; 0002; 22850; 0000; 0120; 50.026855; 1515;  8.703007;  20.392750; -1001.776611;  0.048491; -0.101375; -0.099051;  0.524399;  4.410954;  0.000000;  497.000000; -1166.000000;  -2114; -2615; -38043; 0000; 0000; -13887; -24523; 000000;  0.446936; -1.163555;  0.000000; 0000; 0000; 0000; 0000; 0000; 290717696; 000; 000; 000; 000; 255; 255; 255; 255; 156; 116; -3.662855; -700.453613; -66; -11; -19; -10.000000; 000; 000; 000;  0.000000; 0000; 0000; 0000; 0000; 0208; 0.000000; 0000; 0208;  0.000000;  0.000000;  0.000000; 0; 0;  1.500000;-0.045656;-0.019237;-0.036905;  0.000000;  0.000000;  0.000000; 0;  0.002590;  0.000895; -1.857192;  0.000036;  0.000006; -0.000028;  209; 1571.079663; 0066;  148.000000;  51.000000; -106409.000000; 0208; 0.000000; 0.000000; 0.000000 ; 28807; 0.000000; 0.000000; 0.000000; 0.000000; 0.000000; 0.000000; 0.000000; 0.000000; 0.000000; 0.000000; 0.000000; 0.000000; 0000; 0000; -0.282494; 0.959268; -0.001584; -0.959266; -0.282497; -0.002227; -0.002584; 0.000890; 0.999996; 0.000000; 0.000000; 0.000000; 0; 0.000000; 0.000000; 0.000000; 0.000000; -1; 88; 72; 0; 51; 24; 0; 85; 24; 0; 119; 24; 0; 149; 24; 0; 23; 54; 0; 51; 54; 0; 85; 54; 0; 119; 54; 0; 149; 54; 1; 8; 77; 1; 33; 106; 0; 85; 90; 0; 119; 90; 0; 149; 90; 0; 23; 119; 1; 38; 119; 0; 85; 119; 0; 119; 119; 0; 149; 119; 0; 0; 0; 0; 0; 0; 0; 0; 0; 0; 0; 0; 0; 0; 0; 0; 0; 0; 0; 0; 0; 0; 0; 0; 0; 0; 0; 0; 0; 0; 0; 0; 0; 0; 0; 0; 0; 0; 0; 0; 0; 0; 0; 0; 0; 0; 0; 0; 0; 0; 0; 0; 0; 0; 0; 0.000000; 0.000000; 0.000000; 0.000000; 0.000000; 0.000000; 0.000000; 0.000000; 0.000000; 0.000000; 0.000000; 0.000000; 0.000000; 0.000000; 0.000000; 0.000000; 0.000000; 0.000000; 0.000000; 0.000000; 0.000000; 0.000000; 0.000000; 0.000000; 0.000000; 0.000000; 4958; 0
0; 2407669844;1571.095008; 2064; 2000; 3068; 1658; 1694; 1654; 1607; 1779; 12347; 0000; 1705; 1672; 0000; 0000; 3758; 0000; 22985; 0000; 0120; 50.026772; 1516;  8.721621;  20.374901; -1000.991943;  0.206253; -0.010827; -0.099051;  0.524405;  4.410963;  0.000000;  499.000000; -1166.000000;  -2114; -2615; -38043; 0000; 0000; -13887; -24523; 000000;  0.446936; -1.163555;  0.000000; 0000; 0000; 0000; 0000; 0000; 290717696; 000; 000; 000; 000; 255; 255; 255; 255; 156; 116; -3.662855; -700.453613; -66; -11; -19; -10.000000; 000; 000; 000;  0.000000; 0000; 0000; 0000; 0000; 0208; 0.000000; 0000; 0208;  0.000000;  0.000000;  0.000000; 0; 0;  1.500000;-0.045656;-0.019237;-0.036905;  0.000000;  0.000000;  0.000000; 0;  0.002590;  0.000895; -1.857192;  0.000036;  0.000006; -0.000028;  209; 1571.079663; 0066;  147.000000;  51.000000; -106409.000000; 0208; 0.000000; 0.000000; 0.000000 ; 28807; 0.000000; 0.000000; 0.000000; 0.000000; 0.000000; 0.000000; 0.000000; 0.000000; 0.000000; 0.000000; 0.000000; 0.000000; 0000; 0000; -0.282493; 0.959268; -0.001597; -0.959266; -0.282496; -0.002217; -0.002578; 0.000906; 0.999996; 0.000000; 0.000000; 0.000000; 0; 0.000000; 0.000000; 0.000000; 0.000000; -1; 88; 72; 0; 51; 24; 0; 85; 24; 0; 119; 24; 0; 149; 24; 0; 23; 54; 0; 51; 54; 0; 85; 54; 0; 119; 54; 0; 149; 54; 1; 8; 77; 1; 33; 106; 0; 85; 90; 0; 119; 90; 0; 149; 90; 0; 23; 119; 1; 38; 119; 0; 85; 119; 0; 119; 119; 0; 149; 119; 0; 0; 0; 0; 0; 0; 0; 0; 0; 0; 0; 0; 0; 0; 0; 0; 0; 0; 0; 0; 0; 0; 0; 0; 0; 0; 0; 0; 0; 0; 0; 0; 0; 0; 0; 0; 0; 0; 0; 0; 0; 0; 0; 0; 0; 0; 0; 0; 0; 0; 0; 0; 0; 0; 0; 0.000000; 0.000000; 0.000000; 0.000000; 0.000000; 0.000000; 0.000000; 0.000000; 0.000000; 0.000000; 0.000000; 0.000000; 0.000000; 0.000000; 0.000000; 0.000000; 0.000000; 0.000000; 0.000000; 0.000000; 0.000000; 0.000000; 0.000000; 0.000000; 0.000000; 0.000000; 4927; 0
0; 2407669844;1571.100058; 2064; 2000; 3068; 1658; 1694; 1654; 1606; 1775; 12347; 0000; 1706; 1672; 0000; 0000; 3758; 0000; 23122; 0000; 0120; 50.026688; 1515;  9.519382;  20.325680; -999.529785;  0.110312; -0.076313; -0.099051;  0.524410;  4.410967;  0.000000;  545.000000; -1164.000000;  -2114; -2615; -38043; 0000; 0000; -13887; -24523; 000000;  0.446936; -1.163555;  0.000000; 0000; 0000; 0000; 0000; 0000; 290717696; 000; 000; 000; 000; 255; 255; 255; 255; 156; 116; -3.662855; -700.453613; -66; -11; -19; -10.000000; 000; 000; 000;  0.000000; 0000; 0000; 0000; 0000; 0208; 0.000000; 0000; 0208;  0.000000;  0.000000;  0.000000; 0; 0;  1.500000;-0.045656;-0.019237;-0.036905;  0.000000;  0.000000;  0.000000; 0;  0.002578;  0.000906; -1.857189;  0.000002;  0.000011; -0.000029;  208; 1571.096323; 0066;  147.000000;  52.000000; -106409.000000; 0208; 0.000000; 0.000000; 0.000000 ; 28807; 0.000000; 0.000000; 0.000000; 0.000000; 0.000000; 0.000000; 0.000000; 0.000000; 0.000000; 0.000000; 0.000000; 0.000000; 0000; 0000; -0.282492; 0.959268; -0.001601; -0.959266; -0.282495; -0.002207; -0.002569; 0.000913; 0.999996; 0.000000; 0.000000; 0.000000; 0; 0.000000; 0.000000; 0.000000; 0.000000; -1; 88; 72; 0; 51; 24; 0; 85; 24; 0; 119; 24; 0; 149; 24; 0; 23; 54; 0; 51; 54; 0; 85; 54; 0; 119; 54; 0; 149; 54; 1; 8; 77; 1; 33; 106; 0; 85; 90; 0; 119; 90; 0; 149; 90; 0; 23; 119; 1; 38; 119; 0; 85; 119; 0; 119; 119; 0; 149; 119; 0; 0; 0; 0; 0; 0; 0; 0; 0; 0; 0; 0; 0; 0; 0; 0; 0; 0; 0; 0; 0; 0; 0; 0; 0; 0; 0; 0; 0; 0; 0; 0; 0; 0; 0; 0; 0; 0; 0; 0; 0; 0; 0; 0; 0; 0; 0; 0; 0; 0; 0; 0; 0; 0; 0; 0.000000; 0.000000; 0.000000; 0.000000; 0.000000; 0.000000; 0.000000; 0.000000; 0.000000; 0.000000; 0.000000; 0.000000; 0.000000; 0.000000; 0.000000; 0.000000; 0.000000; 0.000000; 0.000000; 0.000000; 0.000000; 0.000000; 0.000000; 0.000000; 0.000000; 0.000000; 5009; 0
0; 2407669844;1571.104972; 2060; 2000; 3068; 1657; 1694; 1654; 1606; 1775; 12347; 0000; 1705; 1672; 0000; 0000; 3758; 0000; 23257; 0000; 0120; 50.026604; 1516;  7.686028;  20.341778; -999.690918;  0.032311; -0.004331; -0.099051;  0.524415;  4.410982;  0.000000;  440.000000; -1165.000000;  -2114; -2615; -38043; 0000; 0000; -13887; -24523; 000000;  0.446936; -1.163555;  0.000000; 0000; 0000; 0000; 0000; 0000; 290717696; 000; 000; 000; 000; 255; 255; 255; 255; 156; 116; -3.662855; -700.453613; -66; -11; -19; -10.000000; 000; 000; 000;  0.000000; 0000; 0000; 0000; 0000; 0208; 0.000000; 0000; 0208;  0.000000;  0.000000;  0.000000; 0; 0;  1.500000;-0.045656;-0.019237;-0.036905;  0.000000;  0.000000;  0.000000; 0;  0.002578;  0.000906; -1.857189;  0.000002;  0.000011; -0.000029;  208; 1571.096323; 0066;  146.000000;  52.000000; -106409.000000; 0208; 0.000000; 0.000000; 0.000000 ; 28807; 0.000000; 0.000000; 0.000000; 0.000000; 0.000000; 0.000000; 0.000000; 0.000000; 0.000000; 0.000000; 0.000000; 0.000000; 0000; 0000; -0.282491; 0.959269; -0.001599; -0.959266; -0.282494; -0.002199; -0.002561; 0.000913; 0.999996; 0.000000; 0.000000; 0.000000; 0; 0.000000; 0.000000; 0.000000; 0.000000; -1; 88; 72; 0; 51; 24; 0; 85; 24; 0; 119; 24; 0; 149; 24; 0; 23; 54; 0; 51; 54; 0; 85; 54; 0; 119; 54; 0; 149; 54; 1; 8; 77; 1; 33; 106; 0; 85; 90; 0; 119; 90; 0; 149; 90; 0; 23; 119; 1; 38; 119; 0; 85; 119; 0; 119; 119; 0; 149; 119; 0; 0; 0; 0; 0; 0; 0; 0; 0; 0; 0; 0; 0; 0; 0; 0; 0; 0; 0; 0; 0; 0; 0; 0; 0; 0; 0; 0; 0; 0; 0; 0; 0; 0; 0; 0; 0; 0; 0; 0; 0; 0; 0; 0; 0; 0; 0; 0; 0; 0; 0; 0; 0; 0; 0; 0.000000; 0.000000; 0.000000; 0.000000; 0.000000; 0.000000; 0.000000; 0.000000; 0.000000; 0.000000; 0.000000; 0.000000; 0.000000; 0.000000; 0.000000; 0.000000; 0.000000; 0.000000; 0.000000; 0.000000; 0.000000; 0.000000; 0.000000; 0.000000; 0.000000; 0.000000; 4874; 0
0; 2407669844;1571.109973; 2060; 2000; 3064; 1658; 1695; 1654; 1607; 1782; 12347; 0000; 1705; 1672; 0000; 0000; 3758; 0000; 23394; 0000; 0120; 50.026520; 1515;  6.246670;  20.322422; -998.599121;  0.010150;  0.004992; -0.099051;  0.524420;  4.411004;  0.000000;  358.000000; -1165.000000;  -2114; -2615; -38043; 0000; 0000; -13887; -24523; 000000;  0.446936; -1.163555;  0.000000; 0000; 0000; 0000; 0000; 0000; 290717696; 000; 000; 000; 000; 255; 255; 255; 255; 156; 116; -3.662855; -700.453613; -66; -11; -19; -10.000000; 000; 000; 000;  0.000000; 0000; 0000; 0000; 0000; 0208; 0.000000; 0000; 0208;  0.000000;  0.000000;  0.000000; 0; 0;  1.500000;-0.045656;-0.019237;-0.036905;  0.000000;  0.000000;  0.000000; 0;  0.002578;  0.000906; -1.857189;  0.000002;  0.000011; -0.000029;  208; 1571.096323; 0066;  146.000000;  52.000000; -106408.000000; 0208; 0.000000; 0.000000; 0.000000 ; 28807; 0.000000; 0.000000; 0.000000; 0.000000; 0.000000; 0.000000; 0.000000; 0.000000; 0.000000; 0.000000; 0.000000; 0.000000; 0000; 0000; -0.282491; 0.959269; -0.001594; -0.959267; -0.282494; -0.002189; -0.002550; 0.000911; 0.999996; 0.000000; 0.000000; 0.000000; 0; 0.000000; 0.000000; 0.000000; 0.000000; -1; 88; 72; 0; 51; 24; 0; 85; 24; 0; 119; 24; 0; 149; 24; 0; 23; 54; 0; 51; 54; 0; 85; 54; 0; 119; 54; 0; 149; 54; 1; 8; 77; 1; 33; 106; 0; 85; 90; 0; 119; 90; 0; 149; 90; 0; 23; 119; 1; 38; 119; 0; 85; 119; 0; 119; 119; 0; 149; 119; 0; 0; 0; 0; 0; 0; 0; 0; 0; 0; 0; 0; 0; 0; 0; 0; 0; 0; 0; 0; 0; 0; 0; 0; 0; 0; 0; 0; 0; 0; 0; 0; 0; 0; 0; 0; 0; 0; 0; 0; 0; 0; 0; 0; 0; 0; 0; 0; 0; 0; 0; 0; 0; 0; 0; 0.000000; 0.000000; 0.000000; 0.000000; 0.000000; 0.000000; 0.000000; 0.000000; 0.000000; 0.000000; 0.000000; 0.000000; 0.000000; 0.000000; 0.000000; 0.000000; 0.000000; 0.000000; 0.000000; 0.000000; 0.000000; 0.000000; 0.000000; 0.000000; 0.000000; 0.000000; 4962; 0
0; 2407669844;1571.114978; 2060; 2000; 3064; 1658; 1693; 1654; 1605; 1774; 12347; 0000; 1705; 1671; 0000; 0000; 3758; 0000; 23529; 0000; 0120; 50.026436; 1515;  4.793325;  20.296120; -997.114502; -0.066076;  0.100885; -0.099051;  0.524425;  4.411034;  0.000000;  275.000000; -1166.000000;  -2114; -2615; -38043; 0000; 0000; -13887; -24523; 000000;  0.446936; -1.163555;  0.000000; 0000; 0000; 0000; 0000; 0000; 290717696; 000; 000; 000; 000; 255; 255; 255; 255; 156; 116; -3.662855; -700.453613; -66; -11; -19; -10.000000; 000; 000; 000;  0.000000; 0000; 0000; 0000; 0000; 0208; 0.000000; 0000; 0208;  0.000000;  0.000000;  0.000000; 0; 0;  1.500000;-0.045656;-0.019237;-0.036905;  0.000000;  0.000000;  0.000000; 0;  0.002578;  0.000906; -1.857189;  0.000034; -0.000009; -0.000028;  208; 1571.096323; 0066;  145.000000;  51.000000; -106408.000000; 0208; 0.000000; 0.000000; 0.000000 ; 28807; 0.000000; 0.000000; 0.000000; 0.000000; 0.000000; 0.000000; 0.000000; 0.000000; 0.000000; 0.000000; 0.000000; 0.000000; 0000; 0000; -0.282490; 0.959269; -0.001584; -0.959267; -0.282493; -0.002184; -0.002543; 0.000903; 0.999996; 0.000000; 0.000000; 0.000000; 0; 0.000000; 0.000000; 0.000000; 0.000000; -1; 88; 72; 0; 51; 24; 0; 85; 24; 0; 119; 24; 0; 149; 24; 0; 23; 54; 0; 51; 54; 0; 85; 54; 0; 119; 54; 0; 149; 54; 1; 8; 77; 1; 33; 106; 0; 85; 90; 0; 119; 90; 0; 149; 90; 0; 23; 119; 1; 38; 119; 0; 85; 119; 0; 119; 119; 0; 149; 119; 0; 0; 0; 0; 0; 0; 0; 0; 0; 0; 0; 0; 0; 0; 0; 0; 0; 0; 0; 0; 0; 0; 0; 0; 0; 0; 0; 0; 0; 0; 0; 0; 0; 0; 0; 0; 0; 0; 0; 0; 0; 0; 0; 0; 0; 0; 0; 0; 0; 0; 0; 0; 0; 0; 0; 0.000000; 0.000000; 0.000000; 0.000000; 0.000000; 0.000000; 0.000000; 0.000000; 0.000000; 0.000000; 0.000000; 0.000000; 0.000000; 0.000000; 0.000000; 0.000000; 0.000000; 0.000000; 0.000000; 0.000000; 0.000000; 0.000000; 0.000000; 0.000000; 0.000000; 0.000000; 4903; 0
0; 2407669780;1571.120026; 2060; 2000; 3064; 1657; 1694; 1654; 1605; 1775; 12347; 0000; 1705; 1672; 0000; 0000; 3758; 0000; 23666; 0000; 0120; 50.026352; 1516;  4.069542;  20.285999; -996.312012; -0.078871;  0.059093; -0.099051;  0.524429;  4.411067;  0.000000;  233.000000; -1166.000000;  -2114; -2615; -38043; 0000; 0000; -13887; -24523; 000000;  0.446936; -1.163555;  0.000000; 0000; 0000; 0000; 0000; 0000; 290717696; 000; 000; 000; 000; 255; 255; 255; 255; 156; 116; -3.662855; -700.453613; -66; -11; -19; -10.000000; 000; 000; 000;  0.000000; 0000; 0000; 0000; 0000; 0208; 0.000000; 0000; 0208;  0.000000;  0.000000;  0.000000; 0; 0;  1.500000;-0.045656;-0.019237;-0.036905;  0.000000;  0.000000;  0.000000; 0;  0.002550;  0.000911; -1.857187;  0.000034; -0.000009; -0.000028;  208; 1571.112940; 0066;  144.000000;  51.000000; -106408.000000; 0208; 0.000000; 0.000000; 0.000000 ; 28807; 0.000000; 0.000000; 0.000000; 0.000000; 0.000000; 0.000000; 0.000000; 0.000000; 0.000000; 0.000000; 0.000000; 0.000000; 0000; 0000; -0.282489; 0.959269; -0.001572; -0.959267; -0.282492; -0.002175; -0.002530; 0.000893; 0.999996; 0.000000; 0.000000; 0.000000; 0; 0.000000; 0.000000; 0.000000; 0.000000; -1; 88; 72; 0; 51; 24; 0; 85; 24; 0; 119; 24; 0; 149; 24; 0; 23; 54; 0; 51; 54; 0; 85; 54; 0; 119; 54; 0; 149; 54; 1; 8; 77; 1; 33; 106; 0; 85; 90; 0; 119; 90; 0; 149; 90; 0; 23; 119; 1; 38; 119; 0; 85; 119; 0; 119; 119; 0; 149; 119; 0; 0; 0; 0; 0; 0; 0; 0; 0; 0; 0; 0; 0; 0; 0; 0; 0; 0; 0; 0; 0; 0; 0; 0; 0; 0; 0; 0; 0; 0; 0; 0; 0; 0; 0; 0; 0; 0; 0; 0; 0; 0; 0; 0; 0; 0; 0; 0; 0; 0; 0; 0; 0; 0; 0; 0.000000; 0.000000; 0.000000; 0.000000; 0.000000; 0.000000; 0.000000; 0.000000; 0.000000; 0.000000; 0.000000; 0.000000; 0.000000; 0.000000; 0.000000; 0.000000; 0.000000; 0.000000; 0.000000; 0.000000; 0.000000; 0.000000; 0.000000; 0.000000; 0.000000; 0.000000; 4966; 0
0; 2407669780;1571.124964; 2060; 2000; 3068; 1658; 1694; 1654; 1606; 1776; 12347; 0000; 1706; 1671; 0000; 0000; 3758; 0000; 23801; 0000; 0120; 50.026268; 1515;  4.833941;  20.291782; -996.829102;  0.117325;  0.135380; -0.099051;  0.524434;  4.411097;  0.000000;  277.000000; -1166.000000;  -2114; -2615; -38043; 0000; 0000; -13887; -24523; 000000;  0.446936; -1.163555;  0.000000; 0000; 0000; 0000; 0000; 0000; 290717696; 000; 000; 000; 000; 255; 255; 255; 255; 156; 116; -3.662855; -700.453613; -66; -11; -19; -10.000000; 000; 000; 000;  0.000000; 0000; 0000; 0000; 0000; 0208; 0.000000; 0000; 0208;  0.000000;  0.000000;  0.000000; 0; 0;  1.500000;-0.045656;-0.019237;-0.036905;  0.000000;  0.000000;  0.000000; 0;  0.002550;  0.000911; -1.857187;  0.000034; -0.000009; -0.000028;  208; 1571.112940; 0066;  144.000000;  51.000000; -106408.000000; 0208; 0.000000; 0.000000; 0.000000 ; 28807; 0.000000; 0.000000; 0.000000; 0.000000; 0.000000; 0.000000; 0.000000; 0.000000; 0.000000; 0.000000; 0.000000; 0.000000; 0000; 0000; -0.282488; 0.959269; -0.001578; -0.959267; -0.282491; -0.002169; -0.002527; 0.000901; 0.999996; 0.000000; 0.000000; 0.000000; 0; 0.000000; 0.000000; 0.000000; 0.000000; -1; 88; 72; 0; 51; 24; 0; 85; 24; 0; 119; 24; 0; 149; 24; 0; 23; 54; 0; 51; 54; 0; 85; 54; 0; 119; 54; 0; 149; 54; 1; 8; 77; 1; 33; 106; 0; 85; 90; 0; 119; 90; 0; 149; 90; 0; 23; 119; 1; 38; 119; 0; 85; 119; 0; 119; 119; 0; 149; 119; 0; 0; 0; 0; 0; 0; 0; 0; 0; 0; 0; 0; 0; 0; 0; 0; 0; 0; 0; 0; 0; 0; 0; 0; 0; 0; 0; 0; 0; 0; 0; 0; 0; 0; 0; 0; 0; 0; 0; 0; 0; 0; 0; 0; 0; 0; 0; 0; 0; 0; 0; 0; 0; 0; 0; 0.000000; 0.000000; 0.000000; 0.000000; 0.000000; 0.000000; 0.000000; 0.000000; 0.000000; 0.000000; 0.000000; 0.000000; 0.000000; 0.000000; 0.000000; 0.000000; 0.000000; 0.000000; 0.000000; 0.000000; 0.000000; 0.000000; 0.000000; 0.000000; 0.000000; 0.000000; 4897; 0
0; 2407669780;1571.130181; 2064; 2000; 3064; 1658; 1693; 1654; 1606; 1773; 12347; 0000; 1705; 1672; 0768; 2748; 0000; 0000; 23939; 0000; 0120; 50.026184; 1516;  6.170176;  20.282070; -996.717529; -0.054476;  0.331491; -0.099051;  0.524439;  4.411119;  0.000000;  354.000000; -1165.000000;  -2114; -2615; -38043; 0000; 0000; -13887; -24523; 000000;  0.446936; -1.163555;  0.000000; 0000; 0000; 0000; 0000; 0000; 290717696; 000; 000; 000; 000; 255; 255; 255; 255; 156; 116; -3.662855; -700.453613; -66; -11; -19; -10.000000; 000; 000; 000;  0.000000; 0000; 0000; 0000; 0000; 0208; 0.000000; 0000; 0208;  0.000000;  0.000000;  0.000000; 0; 0;  1.500000;-0.045656;-0.019237;-0.036905;  0.000000;  0.000000;  0.000000; 0;  0.002550;  0.000911; -1.857187; -0.000013;  0.000016; -0.000028;  208; 1571.112940; 0066;  145.000000;  51.000000; -106408.000000; 0208; 0.000000; 0.000000; 0.000000 ; 28807; 0.000000; 0.000000; 0.000000; 0.000000; 0.000000; 0.000000; 0.000000; 0.000000; 0.000000; 0.000000; 0.000000; 0.000000; 0000; 0000; -0.282488; 0.959270; -0.001576; -0.959268; -0.282491; -0.002188; -0.002544; 0.000894; 0.999996; 0.000000; 0.000000; 0.000000; 0; 0.000000; 0.000000; 0.000000; 0.000000; -1; 88; 72; 0; 51; 24; 0; 85; 24; 0; 119; 24; 0; 149; 24; 0; 23; 54; 0; 51; 54; 0; 85; 54; 0; 119; 54; 0; 149; 54; 1; 8; 77; 1; 33; 106; 0; 85; 90; 0; 119; 90; 0; 149; 90; 0; 23; 119; 1; 38; 119; 0; 85; 119; 0; 119; 119; 0; 149; 119; 0; 0; 0; 0; 0; 0; 0; 0; 0; 0; 0; 0; 0; 0; 0; 0; 0; 0; 0; 0; 0; 0; 0; 0; 0; 0; 0; 0; 0; 0; 0; 0; 0; 0; 0; 0; 0; 0; 0; 0; 0; 0; 0; 0; 0; 0; 0; 0; 0; 0; 0; 0; 0; 0; 0; 0.000000; 0.000000; 0.000000; 0.000000; 0.000000; 0.000000; 0.000000; 0.000000; 0.000000; 0.000000; 0.000000; 0.000000; 0.000000; 0.000000; 0.000000; 0.000000; 0.000000; 0.000000; 0.000000; 0.000000; 0.000000; 0.000000; 0.000000; 0.000000; 0.000000; 0.000000; 5175; 0
0; 2407669780;1571.134946; 2064; 2000; 3068; 1657; 1694; 1654; 1604; 1773; 12347; 0000; 1705; 1671; 0000; 0000; 3758; 0000; 24074; 0000; 0120; 50.026100; 1515;  7.678747;  20.321949; -998.784912; -0.040343;  0.089675; -0.099051;  0.524444;  4.411134;  0.000000;  440.000000; -1165.000000;  -2114; -2615; -38043; 0000; 0000; -13887; -24523; 000000;  0.446936; -1.163555;  0.000000; 0000; 0000; 0000; 0000; 0000; 290717696; 000; 000; 000; 000; 255; 255; 255; 255; 156; 116; -3.662855; -700.453613; -66; -11; -19; -10.000000; 000; 000; 000;  0.000000; 0000; 0000; 0000; 0000; 0208; 0.000000; 0000; 0208;  104.130363; -17.075974;  0.000000; 1; 1;  1.500000;-0.045656;-0.019237;-0.036905;  0.000000;  0.000000;  0.000000; 0;  0.002527;  0.000901; -1.857184; -0.000013;  0.000016; -0.000028;  208; 1571.129590; 0066;  145.000000;  50.000000; -106408.000000; 0208; 0.000000; 0.000000; 0.000000 ; 28807; 0.000000; 0.000000; 0.000000; 0.000000; 0.000000; 0.000000; 0.000000; 0.000000; 0.000000; 0.000000; 0.000000; 0.000000; 0000; 0000; -0.282487; 0.959270; -0.001570; -0.959268; -0.282490; -0.002190; -0.002544; 0.000888; 0.999996; 0.000000; 0.000000; 0.000000; 0; 0.000000; 0.000000; 0.000000; 0.000000; -1; 88; 74; 0; 51; 24; 0; 85; 24; 0; 119; 24; 0; 149; 24; 0; 23; 54; 0; 51; 54; 0; 85; 54; 0; 119; 54; 0; 149; 54; 1; 8; 77; 1; 33; 106; 0; 85; 90; 0; 119; 90; 0; 149; 90; 0; 23; 119; 1; 38; 119; 0; 85; 119; 0; 119; 119; 0; 149; 119; 0; 0; 0; 0; 0; 0; 0; 0; 0; 0; 0; 0; 0; 0; 0; 0; 0; 0; 0; 0; 0; 0; 0; 0; 0; 0; 0; 0; 0; 0; 0; 0; 0; 0; 0; 0; 0; 0; 0; 0; 0; 0; 0; 0; 0; 0; 0; 0; 0; 0; 0; 0; 0; 0; 0; 0.000000; 0.000000; 0.000000; 0.000000; 0.000000; 0.000000; 0.000000; 0.000000; 0.000000; 0.000000; 0.000000; 0.000000; 0.000000; 0.000000; 0.000000; 0.000000; 0.000000; 0.000000; 0.000000; 0.000000; 0.000000; 0.000000; 0.000000; 0.000000; 0.000000; 0.000000; 4731; 0
0; 2407669780;1571.139973; 2064; 2000; 3068; 1657; 1694; 1654; 1602; 1775; 12347; 0000; 1706; 1672; 0000; 0000; 3758; 0000; 24211; 0000; 0120; 50.026016; 1516;  9.070347;  20.329559; -999.417725; -0.063209;  0.305807; -0.099051;  0.524449;  4.411141;  0.000000;  519.000000; -1165.000000;  -2114; -2615; -38043; 0000; 0000; -13887; -24523; 000000;  0.446936; -1.163555;  0.000000; 0000; 0000; 0000; 0000; 0000; 290717696; 000; 000; 000; 000; 255; 255; 255; 255; 156; 116; -3.662855; -700.453613; -66; -11; -19; -10.000000; 000; 000; 000;  0.000000; 0000; 0000; 0000; 0000; 0208; 0.000000; 0000; 0208;  104.130363; -17.075974;  0.000000; 1; 1;  1.500000;-0.045656;-0.019237;-0.036905;  0.000000;  0.000000;  0.000000; 0;  0.002527;  0.000901; -1.857184; -0.000013;  0.000016; -0.000028;  208; 1571.129590; 0066;  147.000000;  50.000000; -106408.000000; 0208; 0.000000; 0.000000; 0.000000 ; 28808; 0.000000; 0.000000; 0.000000; 0.000000; 0.000000; 0.000000; 0.000000; 0.000000; 0.000000; 0.000000; 0.000000; 0.000000; 0000; 0000; -0.282486; 0.959270; -0.001569; -0.959268; -0.282489; -0.002214; -0.002567; 0.000880; 0.999996; 0.000000; 0.000000; 0.000000; 0; 0.000000; 0.000000; 0.000000; 0.000000; -1; 88; 74; 0; 51; 24; 0; 85; 24; 0; 119; 24; 0; 149; 24; 0; 23; 54; 0; 51; 54; 0; 85; 54; 0; 119; 54; 0; 149; 54; 1; 8; 77; 1; 33; 106; 0; 85; 90; 0; 119; 90; 0; 149; 90; 0; 23; 119; 1; 38; 119; 0; 85; 119; 0; 119; 119; 0; 149; 119; 0; 0; 0; 0; 0; 0; 0; 0; 0; 0; 0; 0; 0; 0; 0; 0; 0; 0; 0; 0; 0; 0; 0; 0; 0; 0; 0; 0; 0; 0; 0; 0; 0; 0; 0; 0; 0; 0; 0; 0; 0; 0; 0; 0; 0; 0; 0; 0; 0; 0; 0; 0; 0; 0; 0; 0.000000; 0.000000; 0.000000; 0.000000; 0.000000; 0.000000; 0.000000; 0.000000; 0.000000; 0.000000; 0.000000; 0.000000; 0.000000; 0.000000; 0.000000; 0.000000; 0.000000; 0.000000; 0.000000; 0.000000; 0.000000; 0.000000; 0.000000; 0.000000; 0.000000; 0.000000; 4988; 0
0; 2407669780;1571.145283; 2064; 2000; 3072; 1658; 1695; 1654; 1605; 1780; 12347; 0000; 1705; 1671; 0000; 0000; 3758; 0000; 24346; 0000; 0120; 50.025932; 1515;  9.605093;  20.353363; -1000.626221; -0.179561; -0.075160; -0.099051;  0.524454;  4.411145;  0.000000;  549.000000; -1165.000000;  -2114; -2615; -38043; 0000; 0000; -13887; -24523; 000000;  0.446936; -1.163555;  0.000000; 0000; 0000; 0000; 0000; 0000; 290717696; 000; 000; 000; 000; 255; 255; 255; 255; 156; 116; -3.662855; -700.453613; -66; -11; -19; -10.000000; 000; 000; 000;  0.000000; 0000; 0000; 0000; 0000; 0208; 0.000000; 0000; 0208;  104.130363; -17.075974;  0.000000; 1; 1;  1.500000;-0.045656;-0.019237;-0.036905;  0.000000;  0.000000;  0.000000; 0;  0.002527;  0.000901; -1.857184; -0.000013;  0.000016; -0.000028;  208; 1571.129590; 0066;  146.000000;  49.000000; -106408.000000; 0208; 0.000000; 0.000000; 0.000000 ; 28808; 0.000000; 0.000000; 0.000000; 0.000000; 0.000000; 0.000000; 0.000000; 0.000000; 0.000000; 0.000000; 0.000000; 0.000000; 0000; 0000; -0.282485; 0.959270; -0.001549; -0.959268; -0.282488; -0.002211; -0.002559; 0.000861; 0.999996; 0.000000; 0.000000; 0.000000; 0; 0.000000; 0.000000; 0.000000; 0.000000; -1; 88; 74; 0; 51; 24; 0; 85; 24; 0; 119; 24; 0; 149; 24; 0; 23; 54; 0; 51; 54; 0; 85; 54; 0; 119; 54; 0; 149; 54; 1; 8; 77; 1; 33; 106; 0; 85; 90; 0; 119; 90; 0; 149; 90; 0; 23; 119; 1; 38; 119; 0; 85; 119; 0; 119; 119; 0; 149; 119; 0; 0; 0; 0; 0; 0; 0; 0; 0; 0; 0; 0; 0; 0; 0; 0; 0; 0; 0; 0; 0; 0; 0; 0; 0; 0; 0; 0; 0; 0; 0; 0; 0; 0; 0; 0; 0; 0; 0; 0; 0; 0; 0; 0; 0; 0; 0; 0; 0; 0; 0; 0; 0; 0; 0; 0.000000; 0.000000; 0.000000; 0.000000; 0.000000; 0.000000; 0.000000; 0.000000; 0.000000; 0.000000; 0.000000; 0.000000; 0.000000; 0.000000; 0.000000; 0.000000; 0.000000; 0.000000; 0.000000; 0.000000; 0.000000; 0.000000; 0.000000; 0.000000; 0.000000; 0.000000; 5227; 0
0; 2407669780;1571.149937; 2064; 2000; 3072; 1657; 1694; 1654; 1604; 1774; 12347; 0000; 1705; 1671; 0000; 0000; 3758; 0000; 0000; 0000; 0000; 50.025848; 1515;  9.102442;  20.406536; -1002.960205; -0.181722; -0.105637; -0.099051;  0.524459;  4.411152;  0.000000;  519.000000; -1165.000000;  -2114; -2615; -38043; 0000; 0000; -13887; -24523; 000000;  0.446936; -1.163555;  0.000000; 0000; 0000; 0000; 0000; 0000; 290717696; 000; 000; 000; 000; 255; 255; 255; 255; 156; 116; -3.662855; -700.453613; -66; -11; -19; -10.000000; 000; 000; 000;  0.000000; 0000; 0000; 0000; 0000; 0208; 0.000000; 0000; 0208;  0.000000;  0.000000;  0.000000; 0; 0;  1.500000;-0.045656;-0.019237;-0.036905;  0.000000;  0.000000;  0.000000; 0;  0.002559;  0.000861; -1.857181; -0.000003;  0.000062; -0.000028;  208; 1571.146168; 0066;  145.000000;  48.000000; -106408.000000; 0208; 0.000000; 0.000000; 0.000000 ; 28808; 0.000000; 0.000000; 0.000000; 0.000000; 0.000000; 0.000000; 0.000000; 0.000000; 0.000000; 0.000000; 0.000000; 0.000000; 0000; 0000; -0.282485; 0.959271; -0.001528; -0.959269; -0.282488; -0.002204; -0.002546; 0.000843; 0.999996; 0.000000; 0.000000; 0.000000; 0; 0.000000; 0.000000; 0.000000; 0.000000; -1; 88; 72; 0; 51; 24; 0; 85; 24; 0; 119; 24; 0; 149; 24; 0; 23; 54; 0; 51; 54; 0; 85; 54; 0; 119; 54; 0; 149; 54; 1; 8; 77; 1; 33; 106; 0; 85; 90; 0; 119; 90; 0; 149; 90; 0; 23; 119; 1; 38; 119; 0; 85; 119; 0; 119; 119; 0; 149; 119; 0; 0; 0; 0; 0; 0; 0; 0; 0; 0; 0; 0; 0; 0; 0; 0; 0; 0; 0; 0; 0; 0; 0; 0; 0; 0; 0; 0; 0; 0; 0; 0; 0; 0; 0; 0; 0; 0; 0; 0; 0; 0; 0; 0; 0; 0; 0; 0; 0; 0; 0; 0; 0; 0; 0; 0.000000; 0.000000; 0.000000; 0.000000; 0.000000; 0.000000; 0.000000; 0.000000; 0.000000; 0.000000; 0.000000; 0.000000; 0.000000; 0.000000; 0.000000; 0.000000; 0.000000; 0.000000; 0.000000; 0.000000; 0.000000; 0.000000; 0.000000; 0.000000; 0.000000; 0.000000; 4614; 0
0; 2407669780;1571.154912; 2068; 2000; 3068; 1658; 1694; 1654; 1609; 1775; 12347; 0000; 1705; 1671; 0000; 0000; 3758; 0000; 0000; 0000; 0000; 50.025764; 1516;  10.765463;  20.373226; -1001.772705;  0.019033; -0.022869; -0.099051;  0.524464;  4.411150;  0.000000;  615.000000; -1165.000000;  -2114; -2615; -38043; 0000; 0000; -13887; -24523; 000000;  0.446936; -1.163555;  0.000000; 0000; 0000; 0000; 0000; 0000; 290717696; 000; 000; 000; 000; 255; 255; 255; 255; 156; 116; -3.662855; -700.453613; -66; -11; -19; -10.000000; 000; 000; 000;  0.000000; 0000; 0000; 0000; 0000; 0208; 0.000000; 0000; 0208;  0.000000;  0.000000;  0.000000; 0; 0;  1.500000;-0.045656;-0.019237;-0.036905;  0.000000;  0.000000;  0.000000; 0;  0.002559;  0.000861; -1.857181; -0.000003;  0.000062; -0.000028;  208; 1571.146168; 0066;  145.000000;  48.000000; -106408.000000; 0208; 0.000000; 0.000000; 0.000000 ; 28808; 0.000000; 0.000000; 0.000000; 0.000000; 0.000000; 0.000000; 0.000000; 0.000000; 0.000000; 0.000000; 0.000000; 0.000000; 0000; 0000; -0.282484; 0.959271; -0.001527; -0.959269; -0.282487; -0.002204; -0.002545; 0.000842; 0.999996; 0.000000; 0.000000; 0.000000; 0; 0.000000; 0.000000; 0.000000; 0.000000; -1; 88; 72; 0; 51; 24; 0; 85; 24; 0; 119; 24; 0; 149; 24; 0; 23; 54; 0; 51; 54; 0; 85; 54; 0; 119; 54; 0; 149; 54; 1; 8; 77; 1; 33; 106; 0; 85; 90; 0; 119; 90; 0; 149; 90; 0; 23; 119; 1; 38; 119; 0; 85; 119; 0; 119; 119; 0; 149; 119; 0; 0; 0; 0; 0; 0; 0; 0; 0; 0; 0; 0; 0; 0; 0; 0; 0; 0; 0; 0; 0; 0; 0; 0; 0; 0; 0; 0; 0; 0; 0; 0; 0; 0; 0; 0; 0; 0; 0; 0; 0; 0; 0; 0; 0; 0; 0; 0; 0; 0; 0; 0; 0; 0; 0; 0.000000; 0.000000; 0.000000; 0.000000; 0.000000; 0.000000; 0.000000; 0.000000; 0.000000; 0.000000; 0.000000; 0.000000; 0.000000; 0.000000; 0.000000; 0.000000; 0.000000; 0.000000; 0.000000; 0.000000; 0.000000; 0.000000; 0.000000; 0.000000; 0.000000; 0.000000; 4936; 0
0; 2407669780;1571.159896; 2068; 2000; 3068; 1658; 1694; 1654; 1608; 1773; 12347; 0000; 1705; 1671; 0000; 0000; 3758; 0000; 0000; 0000; 0000; 50.025681; 1515;  11.178650;  20.387859; -1002.531250; -0.013292; -0.063437; -0.099051;  0.524469;  4.411145;  0.000000;  638.000000; -1165.000000;  -2114; -2615; -38043; 0000; 0000; -13887; -24523; 000000;  0.446936; -1.163555;  0.000000; 0000; 0000; 0000; 0000; 0000; 290717696; 000; 000; 000; 000; 255; 255; 255; 255; 156; 116; -3.662855; -700.453613; -66; -11; -19; -10.000000; 000; 000; 000;  0.000000; 0000; 0000; 0000; 0000; 0208; 0.000000; 0000; 0208;  0.000000;  0.000000;  0.000000; 0; 0;  1.500000;-0.045656;-0.019237;-0.036905;  0.000000;  0.000000;  0.000000; 0;  0.002559;  0.000861; -1.857181; -0.000003;  0.000062; -0.000028;  208; 1571.146168; 0066;  145.000000;  48.000000; -106408.000000; 0208; 0.000000; 0.000000; 0.000000 ; 28808; 0.000000; 0.000000; 0.000000; 0.000000; 0.000000; 0.000000; 0.000000; 0.000000; 0.000000; 0.000000; 0.000000; 0.000000; 0000; 0000; -0.282483; 0.959271; -0.001522; -0.959269; -0.282486; -0.002202; -0.002542; 0.000838; 0.999996; 0.000000; 0.000000; 0.000000; 0; 0.000000; 0.000000; 0.000000; 0.000000; -1; 88; 72; 0; 51; 24; 0; 85; 24; 0; 119; 24; 0; 149; 24; 0; 23; 54; 0; 51; 54; 0; 85; 54; 0; 119; 54; 0; 149; 54; 1; 8; 77; 1; 33; 106; 0; 85; 90; 0; 119; 90; 0; 149; 90; 0; 23; 119; 1; 38; 119; 0; 85; 119; 0; 119; 119; 0; 149; 119; 0; 0; 0; 0; 0; 0; 0; 0; 0; 0; 0; 0; 0; 0; 0; 0; 0; 0; 0; 0; 0; 0; 0; 0; 0; 0; 0; 0; 0; 0; 0; 0; 0; 0; 0; 0; 0; 0; 0; 0; 0; 0; 0; 0; 0; 0; 0; 0; 0; 0; 0; 0; 0; 0; 0; 0.000000; 0.000000; 0.000000; 0.000000; 0.000000; 0.000000; 0.000000; 0.000000; 0.000000; 0.000000; 0.000000; 0.000000; 0.000000; 0.000000; 0.000000; 0.000000; 0.000000; 0.000000; 0.000000; 0.000000; 0.000000; 0.000000; 0.000000; 0.000000; 0.000000; 0.000000; 4943; 0
0; 2407669780;1571.164896; 2064; 2000; 3068; 1658; 1694; 1654; 1607; 1778; 12347; 0000; 1705; 1671; 0000; 0000; 3758; 0000; 0000; 0000; 0000; 50.025597; 1515;  11.434376;  20.328094; -999.816650;  0.105663;  0.156336; -0.099051;  0.524473;  4.411139;  0.000000;  655.000000; -1164.000000;  -2114; -2615; -38043; 0000; 0000; -13887; -24523; 000000;  0.446936; -1.163555;  0.000000; 0000; 0000; 0000; 0000; 0000; 290717696; 000; 000; 000; 000; 255; 255; 255; 255; 156; 116; -3.662855; -700.453613; -66; -11; -19; -10.000000; 000; 000; 000;  0.000000; 0000; 0000; 0000; 0000; 0208; 0.000000; 0000; 0208;  0.000000;  0.000000;  0.000000; 0; 0;  1.500000;-0.045656;-0.019237;-0.036905;  0.000000;  0.000000;  0.000000; 0;  0.002559;  0.000861; -1.857181; -0.000033; -0.000020; -0.000028;  208; 1571.146168; 0066;  146.000000;  48.000000; -106408.000000; 0208; 0.000000; 0.000000; 0.000000 ; 28808; 0.000000; 0.000000; 0.000000; 0.000000; 0.000000; 0.000000; 0.000000; 0.000000; 0.000000; 0.000000; 0.000000; 0.000000; 0000; 0000; -0.282483; 0.959271; -0.001533; -0.959269; -0.282485; -0.002216; -0.002559; 0.000845; 0.999996; 0.000000; 0.000000; 0.000000; 0; 0.000000; 0.000000; 0.000000; 0.000000; -1; 88; 72; 0; 51; 24; 0; 85; 24; 0; 119; 24; 0; 149; 24; 0; 23; 54; 0; 51; 54; 0; 85; 54; 0; 119; 54; 0; 149; 54; 1; 8; 77; 1; 33; 106; 0; 85; 90; 0; 119; 90; 0; 149; 90; 0; 23; 119; 1; 38; 119; 0; 85; 119; 0; 119; 119; 0; 149; 119; 0; 0; 0; 0; 0; 0; 0; 0; 0; 0; 0; 0; 0; 0; 0; 0; 0; 0; 0; 0; 0; 0; 0; 0; 0; 0; 0; 0; 0; 0; 0; 0; 0; 0; 0; 0; 0; 0; 0; 0; 0; 0; 0; 0; 0; 0; 0; 0; 0; 0; 0; 0; 0; 0; 0; 0.000000; 0.000000; 0.000000; 0.000000; 0.000000; 0.000000; 0.000000; 0.000000; 0.000000; 0.000000; 0.000000; 0.000000; 0.000000; 0.000000; 0.000000; 0.000000; 0.000000; 0.000000; 0.000000; 0.000000; 0.000000; 0.000000; 0.000000; 0.000000; 0.000000; 0.000000; 4962; 0
0; 2407669780;1571.169906; 2064; 2000; 3072; 1658; 1694; 1654; 1607; 1778; 12347; 0000; 1706; 1672; 0768; 2747; 0000; 0000; 0000; 0000; 0000; 50.027084; 1516;  11.571487;  20.340034; -1000.396973;  0.239737;  0.095776; -0.099051;  0.524478;  4.411133;  0.000000;  662.000000; -1164.000000;  -2114; -2615; -38043; 0000; 0000; -13887; -24523; 000000;  0.446936; -1.163555;  0.000000; 0000; 0000; 0000; 0000; 0000; 290717696; 000; 000; 000; 000; 255; 255; 255; 255; 156; 116; -3.662855; -700.453613; -66; -11; -19; -10.000000; 000; 000; 000;  0.000000; 0000; 0000; 0000; 0000; 0208; 0.000000; 0000; 0208;  0.000000;  0.000000;  0.000000; 0; 0;  1.500000;-0.045656;-0.019237;-0.036905;  0.000000;  0.000000;  0.000000; 0;  0.002542;  0.000838; -1.857179; -0.000033; -0.000020; -0.000028;  208; 1571.162787; 0066;  147.000000;  49.000000; -106408.000000; 0208; 0.000000; 0.000000; 0.000000 ; 28808; 0.000000; 0.000000; 0.000000; 0.000000; 0.000000; 0.000000; 0.000000; 0.000000; 0.000000; 0.000000; 0.000000; 0.000000; 0000; 0000; -0.282482; 0.959271; -0.001554; -0.959269; -0.282485; -0.002222; -0.002570; 0.000863; 0.999996; 0.000000; 0.000000; 0.000000; 0; 0.000000; 0.000000; 0.000000; 0.000000; -1; 88; 72; 0; 51; 24; 0; 85; 24; 0; 119; 24; 0; 149; 24; 0; 23; 54; 0; 51; 54; 0; 85; 54; 0; 119; 54; 0; 149; 54; 1; 8; 77; 1; 33; 106; 0; 85; 90; 0; 119; 90; 0; 149; 90; 0; 23; 119; 1; 38; 119; 0; 85; 119; 0; 119; 119; 0; 149; 119; 0; 0; 0; 0; 0; 0; 0; 0; 0; 0; 0; 0; 0; 0; 0; 0; 0; 0; 0; 0; 0; 0; 0; 0; 0; 0; 0; 0; 0; 0; 0; 0; 0; 0; 0; 0; 0; 0; 0; 0; 0; 0; 0; 0; 0; 0; 0; 0; 0; 0; 0; 0; 0; 0; 0; 0.000000; 0.000000; 0.000000; 0.000000; 0.000000; 0.000000; 0.000000; 0.000000; 0.000000; 0.000000; 0.000000; 0.000000; 0.000000; 0.000000; 0.000000; 0.000000; 0.000000; 0.000000; 0.000000; 0.000000; 0.000000; 0.000000; 0.000000; 0.000000; 0.000000; 0.000000; 4972; 0
0; 2407669780;1571.176052; 2064; 2000; 3072; 1658; 1694; 1654; 1609; 1777; 12347; 0000; 1705; 1671; 0000; 0000; 3758; 0000; 0000; 0000; 0000; 50.027000; 1517;  9.096201;  20.384098; -1001.939453;  0.047946;  0.100715; -0.099051;  0.524483;  4.411140;  0.000000;  520.000000; -1165.000000;  -2114; -2615; -38043; 0000; 0000; -13887; -24523; 000000;  0.446936; -1.163555;  0.000000; 0000; 0000; 0000; 0000; 0000; 290717696; 000; 000; 000; 000; 255; 255; 255; 255; 156; 116; -3.662855; -700.453613; -66; -11; -19; -10.000000; 000; 000; 000;  0.000000; 0000; 0000; 0000; 0000; 0208; 0.000000; 0000; 0208;  0.000000;  0.000000;  0.000000; 0; 0;  1.500000;-0.045656;-0.019237;-0.036905;  0.000000;  0.000000;  0.000000; 0;  0.002542;  0.000838; -1.857179; -0.000033; -0.000020; -0.000028;  208; 1571.162787; 0066;  147.000000;  49.000000; -106408.000000; 0208; 0.000000; 0.000000; 0.000000 ; 28808; 0.000000; 0.000000; 0.000000; 0.000000; 0.000000; 0.000000; 0.000000; 0.000000; 0.000000; 0.000000; 0.000000; 0.000000; 0000; 0000; -0.282481; 0.959272; -0.001557; -0.959269; -0.282484; -0.002226; -0.002575; 0.000865; 0.999996; 0.000000; 0.000000; 0.000000; 0; 0.000000; 0.000000; 0.000000; 0.000000; -1; 88; 72; 0; 51; 24; 0; 85; 24; 0; 119; 24; 0; 149; 24; 0; 23; 54; 0; 51; 54; 0; 85; 54; 0; 119; 54; 0; 149; 54; 1; 8; 77; 1; 33; 106; 0; 85; 90; 0; 119; 90; 0; 149; 90; 0; 23; 119; 1; 38; 119; 0; 85; 119; 0; 119; 119; 0; 149; 119; 0; 0; 0; 0; 0; 0; 0; 0; 0; 0; 0; 0; 0; 0; 0; 0; 0; 0; 0; 0; 0; 0; 0; 0; 0; 0; 0; 0; 0; 0; 0; 0; 0; 0; 0; 0; 0; 0; 0; 0; 0; 0; 0; 0; 0; 0; 0; 0; 0; 0; 0; 0; 0; 0; 0; 0.000000; 0.000000; 0.000000; 0.000000; 0.000000; 0.000000; 0.000000; 0.000000; 0.000000; 0.000000; 0.000000; 0.000000; 0.000000; 0.000000; 0.000000; 0.000000; 0.000000; 0.000000; 0.000000; 0.000000; 0.000000; 0.000000; 0.000000; 0.000000; 0.000000; 0.000000; 6108; 0
0; 2407669780;1571.179942; 2064; 2000; 3068; 1658; 1694; 1654; 1607; 1777; 12347; 0000; 1705; 1671; 0000; 0000; 3758; 0000; 0000; 0000; 0000; 50.026917; 1515;  8.438908;  20.390762; -1002.114502;  0.168562;  0.042469; -0.099051;  0.524488;  4.411150;  0.000000;  482.000000; -1165.000000;  -2114; -2615; -38043; 0000; 0000; -13887; -24523; 000000;  0.446936; -1.163555;  0.000000; 0000; 0000; 0000; 0000; 0000; 290717696; 000; 000; 000; 000; 255; 255; 255; 255; 156; 116; -3.662855; -700.453613; -66; -11; -19; -10.000000; 000; 000; 000;  0.000000; 0000; 0000; 0000; 0000; 0208; 0.000000; 0000; 0208;  0.000000;  0.000000;  0.000000; 0; 0;  1.500000;-0.045656;-0.019237;-0.036905;  0.000000;  0.000000;  0.000000; 0;  0.002542;  0.000838; -1.857179;  0.000032;  0.000018; -0.000029;  208; 1571.162787; 0066;  147.000000;  50.000000; -106408.000000; 0208; 0.000000; 0.000000; 0.000000 ; 28808; 0.000000; 0.000000; 0.000000; 0.000000; 0.000000; 0.000000; 0.000000; 0.000000; 0.000000; 0.000000; 0.000000; 0.000000; 0000; 0000; -0.282480; 0.959272; -0.001568; -0.959270; -0.282483; -0.002221; -0.002574; 0.000877; 0.999996; 0.000000; 0.000000; 0.000000; 0; 0.000000; 0.000000; 0.000000; 0.000000; -1; 88; 72; 0; 51; 24; 0; 85; 24; 0; 119; 24; 0; 149; 24; 0; 23; 54; 0; 51; 54; 0; 85; 54; 0; 119; 54; 0; 149; 54; 1; 8; 77; 1; 33; 106; 0; 85; 90; 0; 119; 90; 0; 149; 90; 0; 23; 119; 1; 38; 119; 0; 85; 119; 0; 119; 119; 0; 149; 119; 0; 0; 0; 0; 0; 0; 0; 0; 0; 0; 0; 0; 0; 0; 0; 0; 0; 0; 0; 0; 0; 0; 0; 0; 0; 0; 0; 0; 0; 0; 0; 0; 0; 0; 0; 0; 0; 0; 0; 0; 0; 0; 0; 0; 0; 0; 0; 0; 0; 0; 0; 0; 0; 0; 0; 0.000000; 0.000000; 0.000000; 0.000000; 0.000000; 0.000000; 0.000000; 0.000000; 0.000000; 0.000000; 0.000000; 0.000000; 0.000000; 0.000000; 0.000000; 0.000000; 0.000000; 0.000000; 0.000000; 0.000000; 0.000000; 0.000000; 0.000000; 0.000000; 0.000000; 0.000000; 3853; 0
0; 2407669780;1571.184889; 2064; 2000; 3068; 1658; 1694; 1654; 1607; 1774; 12347; 0000; 1705; 1672; 0000; 0000; 3758; 0000; 0000; 0000; 0000; 50.026833; 1516;  8.745195;  20.400528; -1002.626709;  0.127395;  0.049512; -0.099051;  0.524493;  4.411160;  0.000000;  499.000000; -1165.000000;  -2114; -2615; -38043; 0000; 0000; -13887; -24523; 000000;  0.446936; -1.163555;  0.000000; 0000; 0000; 0000; 0000; 0000; 290717696; 000; 000; 000; 000; 255; 255; 255; 255; 156; 116; -3.662855; -700.453613; -66; -11; -19; -10.000000; 000; 000; 000;  0.000000; 0000; 0000; 0000; 0000; 0208; 0.000000; 0000; 0208;  5.655983; -2.236395;  0.000000; 1; 1;  1.500000;-0.045656;-0.019237;-0.036905;  0.000000;  0.000000;  0.000000; 0;  0.002575;  0.000865; -1.857177;  0.000032;  0.000018; -0.000029;  208; 1571.179450; 0066;  147.000000;  50.000000; -106408.000000; 0208; 0.000000; 0.000000; 0.000000 ; 28808; 0.000000; 0.000000; 0.000000; 0.000000; 0.000000; 0.000000; 0.000000; 0.000000; 0.000000; 0.000000; 0.000000; 0.000000; 0000; 0000; -0.282480; 0.959272; -0.001576; -0.959270; -0.282483; -0.002219; -0.002573; 0.000885; 0.999996; 0.000000; 0.000000; 0.000000; 0; 0.000000; 0.000000; 0.000000; 0.000000; -1; 88; 72; 0; 51; 24; 0; 85; 24; 0; 119; 24; 0; 149; 24; 0; 23; 54; 0; 51; 54; 0; 85; 54; 0; 119; 54; 0; 149; 54; 1; 8; 77; 1; 33; 106; 0; 85; 90; 0; 119; 90; 0; 149; 90; 0; 23; 119; 1; 38; 119; 0; 85; 119; 0; 119; 119; 0; 149; 119; 0; 0; 0; 0; 0; 0; 0; 0; 0; 0; 0; 0; 0; 0; 0; 0; 0; 0; 0; 0; 0; 0; 0; 0; 0; 0; 0; 0; 0; 0; 0; 0; 0; 0; 0; 0; 0; 0; 0; 0; 0; 0; 0; 0; 0; 0; 0; 0; 0; 0; 0; 0; 0; 0; 0; 0.000000; 0.000000; 0.000000; 0.000000; 0.000000; 0.000000; 0.000000; 0.000000; 0.000000; 0.000000; 0.000000; 0.000000; 0.000000; 0.000000; 0.000000; 0.000000; 0.000000; 0.000000; 0.000000; 0.000000; 0.000000; 0.000000; 0.000000; 0.000000; 0.000000; 0.000000; 4908; 0
0; 2407669780;1571.189902; 2064; 2000; 3072; 1658; 1695; 1654; 1605; 1778; 12347; 0000; 1705; 1671; 0000; 0000; 3758; 0000; 0000; 0000; 0000; 50.026749; 1517;  8.714388;  20.375866; -1001.483643;  0.094195; -0.061430; -0.099051;  0.524499;  4.411169;  0.000000;  498.000000; -1165.000000;  -2114; -2615; -38043; 0000; 0000; -13887; -24523; 000000;  0.446936; -1.163555;  0.000000; 0000; 0000; 0000; 0000; 0000; 290717696; 000; 000; 000; 000; 255; 255; 255; 255; 156; 116; -3.662855; -700.453613; -66; -11; -19; -10.000000; 000; 000; 000;  0.000000; 0000; 0000; 0000; 0000; 0208; 0.000000; 0000; 0208;  5.655983; -2.236395;  0.000000; 1; 1;  1.500000;-0.045656;-0.019237;-0.036905;  0.000000;  0.000000;  0.000000; 0;  0.002575;  0.000865; -1.857177;  0.000032;  0.000018; -0.000029;  208; 1571.179450; 0066;  146.000000;  51.000000; -106408.000000; 0208; 0.000000; 0.000000; 0.000000 ; 28808; 0.000000; 0.000000; 0.000000; 0.000000; 0.000000; 0.000000; 0.000000; 0.000000; 0.000000; 0.000000; 0.000000; 0.000000; 0000; 0000; -0.282479; 0.959272; -0.001579; -0.959270; -0.282482; -0.002207; -0.002563; 0.000891; 0.999996; 0.000000; 0.000000; 0.000000; 0; 0.000000; 0.000000; 0.000000; 0.000000; -1; 88; 72; 0; 51; 24; 0; 85; 24; 0; 119; 24; 0; 149; 24; 0; 23; 54; 0; 51; 54; 0; 85; 54; 0; 119; 54; 0; 149; 54; 1; 8; 77; 1; 33; 106; 0; 85; 90; 0; 119; 90; 0; 149; 90; 0; 23; 119; 1; 38; 119; 0; 85; 119; 0; 119; 119; 0; 149; 119; 0; 0; 0; 0; 0; 0; 0; 0; 0; 0; 0; 0; 0; 0; 0; 0; 0; 0; 0; 0; 0; 0; 0; 0; 0; 0; 0; 0; 0; 0; 0; 0; 0; 0; 0; 0; 0; 0; 0; 0; 0; 0; 0; 0; 0; 0; 0; 0; 0; 0; 0; 0; 0; 0; 0; 0.000000; 0.000000; 0.000000; 0.000000; 0.000000; 0.000000; 0.000000; 0.000000; 0.000000; 0.000000; 0.000000; 0.000000; 0.000000; 0.000000; 0.000000; 0.000000; 0.000000; 0.000000; 0.000000; 0.000000; 0.000000; 0.000000; 0.000000; 0.000000; 0.000000; 0.000000; 4977; 0
0; 2407669780;1571.194887; 2064; 2000; 3072; 1658; 1694; 1654; 1609; 1779; 12347; 0000; 1705; 1672; 0000; 0000; 3758; 0000; 0000; 0000; 0000; 50.026665; 1515;  9.610411;  20.369221; -1001.354248;  0.144107; -0.010298; -0.099051;  0.524504;  4.411173;  0.000000;  549.000000; -1165.000000;  -2114; -2615; -38043; 0000; 0000; -13887; -24523; 000000;  0.446936; -1.163555;  0.000000; 0000; 0000; 0000; 0000; 0000; 290717696; 000; 000; 000; 000; 255; 255; 255; 255; 156; 116; -3.662855; -700.453613; -66; -11; -19; -10.000000; 000; 000; 000;  0.000000; 0000; 0000; 0000; 0000; 0208; 0.000000; 0000; 0208;  5.655983; -2.236395;  0.000000; 1; 1;  1.500000;-0.045656;-0.019237;-0.036905;  0.000000;  0.000000;  0.000000; 0;  0.002575;  0.000865; -1.857177;  0.000032;  0.000018; -0.000029;  208; 1571.179450; 0066;  146.000000;  51.000000; -106408.000000; 0208; 0.000000; 0.000000; 0.000000 ; 28808; 0.000000; 0.000000; 0.000000; 0.000000; 0.000000; 0.000000; 0.000000; 0.000000; 0.000000; 0.000000; 0.000000; 0.000000; 0000; 0000; -0.282478; 0.959273; -0.001587; -0.959270; -0.282481; -0.002202; -0.002560; 0.000901; 0.999996; 0.000000; 0.000000; 0.000000; 0; 0.000000; 0.000000; 0.000000; 0.000000; -1; 88; 72; 0; 51; 24; 0; 85; 24; 0; 119; 24; 0; 149; 24; 0; 23; 54; 0; 51; 54; 0; 85; 54; 0; 119; 54; 0; 149; 54; 1; 8; 77; 1; 33; 106; 0; 85; 90; 0; 119; 90; 0; 149; 90; 0; 23; 119; 1; 38; 119; 0; 85; 119; 0; 119; 119; 0; 149; 119; 0; 0; 0; 0; 0; 0; 0; 0; 0; 0; 0; 0; 0; 0; 0; 0; 0; 0; 0; 0; 0; 0; 0; 0; 0; 0; 0; 0; 0; 0; 0; 0; 0; 0; 0; 0; 0; 0; 0; 0; 0; 0; 0; 0; 0; 0; 0; 0; 0; 0; 0; 0; 0; 0; 0; 0.000000; 0.000000; 0.000000; 0.000000; 0.000000; 0.000000; 0.000000; 0.000000; 0.000000; 0.000000; 0.000000; 0.000000; 0.000000; 0.000000; 0.000000; 0.000000; 0.000000; 0.000000; 0.000000; 0.000000; 0.000000; 0.000000; 0.000000; 0.000000; 0.000000; 0.000000; 4945; 0
0; 2407669780;1571.199890; 2064; 2000; 3072; 1657; 1693; 1654; 1603; 1773; 12347; 0000; 1705; 1671; 0000; 0000; 3758; 0000; 0000; 0000; 0000; 50.026581; 1517;  9.331955;  20.413296; -1003.330078; -0.010444;  0.056530; -0.099051;  0.524509;  4.411178;  0.000000;  532.000000; -1165.000000;  -2114; -2615; -38043; 0000; 0000; -13887; -24523; 000000;  0.446936; -1.163555;  0.000000; 0000; 0000; 0000; 0000; 0000; 290717696; 000; 000; 000; 000; 255; 255; 255; 255; 156; 116; -3.662855; -700.453613; -66; -11; -19; -10.000000; 000; 000; 000;  0.000000; 0000; 0000; 0000; 0000; 0208; 0.000000; 0000; 0208;  0.000000;  0.000000;  0.000000; 0; 0;  1.500000;-0.045656;-0.019237;-0.036905;  0.000000;  0.000000;  0.000000; 0;  0.002560;  0.000901; -1.857174;  0.000032;  0.000009; -0.000028;  208; 1571.196046; 0066;  146.000000;  51.000000; -106408.000000; 0208; 0.000000; 0.000000; 0.000000 ; 28808; 0.000000; 0.000000; 0.000000; 0.000000; 0.000000; 0.000000; 0.000000; 0.000000; 0.000000; 0.000000; 0.000000; 0.000000; 0000; 0000; -0.282477; 0.959273; -0.001584; -0.959271; -0.282480; -0.002205; -0.002562; 0.000897; 0.999996; 0.000000; 0.000000; 0.000000; 0; 0.000000; 0.000000; 0.000000; 0.000000; -1; 88; 72; 0; 51; 24; 0; 85; 24; 0; 119; 24; 0; 149; 24; 0; 23; 54; 0; 51; 54; 0; 85; 54; 0; 119; 54; 0; 149; 54; 1; 8; 77; 1; 33; 106; 0; 85; 90; 0; 119; 90; 0; 149; 90; 0; 23; 119; 1; 38; 119; 0; 85; 119; 0; 119; 119; 0; 149; 119; 0; 0; 0; 0; 0; 0; 0; 0; 0; 0; 0; 0; 0; 0; 0; 0; 0; 0; 0; 0; 0; 0; 0; 0; 0; 0; 0; 0; 0; 0; 0; 0; 0; 0; 0; 0; 0; 0; 0; 0; 0; 0; 0; 0; 0; 0; 0; 0; 0; 0; 0; 0; 0; 0; 0; 0.000000; 0.000000; 0.000000; 0.000000; 0.000000; 0.000000; 0.000000; 0.000000; 0.000000; 0.000000; 0.000000; 0.000000; 0.000000; 0.000000; 0.000000; 0.000000; 0.000000; 0.000000; 0.000000; 0.000000; 0.000000; 0.000000; 0.000000; 0.000000; 0.000000; 0.000000; 4962; 0
0; 2407669780;1571.204878; 2064; 2000; 3072; 1657; 1694; 1654; 1605; 1777; 12347; 0000; 1705; 1671; 0000; 0000; 3758; 0000; 0000; 0000; 0000; 50.026497; 1516;  8.901505;  20.435310; -1004.259521; -0.126175;  0.088180; -0.099051;  0.524515;  4.411186;  0.000000;  507.000000; -1165.000000;  -2114; -2615; -38043; 0000; 0000; -13887; -24523; 000000;  0.446936; -1.163555;  0.000000; 0000; 0000; 0000; 0000; 0000; 290717696; 000; 000; 000; 000; 255; 255; 255; 255; 156; 116; -3.662855; -700.453613; -66; -11; -19; -10.000000; 000; 000; 000;  0.000000; 0000; 0000; 0000; 0000; 0208; 0.000000; 0000; 0208;  0.000000;  0.000000;  0.000000; 0; 0;  1.500000;-0.045656;-0.019237;-0.036905;  0.000000;  0.000000;  0.000000; 0;  0.002560;  0.000901; -1.857174;  0.000032;  0.000009; -0.000028;  208; 1571.196046; 0066;  147.000000;  50.000000; -106408.000000; 0208; 0.000000; 0.000000; 0.000000 ; 28809; 0.000000; 0.000000; 0.000000; 0.000000; 0.000000; 0.000000; 0.000000; 0.000000; 0.000000; 0.000000; 0.000000; 0.000000; 0000; 0000; -0.282477; 0.959273; -0.001572; -0.959271; -0.282480; -0.002212; -0.002566; 0.000883; 0.999996; 0.000000; 0.000000; 0.000000; 0; 0.000000; 0.000000; 0.000000; 0.000000; -1; 88; 72; 0; 51; 24; 0; 85; 24; 0; 119; 24; 0; 149; 24; 0; 23; 54; 0; 51; 54; 0; 85; 54; 0; 119; 54; 0; 149; 54; 1; 8; 77; 1; 33; 106; 0; 85; 90; 0; 119; 90; 0; 149; 90; 0; 23; 119; 1; 38; 119; 0; 85; 119; 0; 119; 119; 0; 149; 119; 0; 0; 0; 0; 0; 0; 0; 0; 0; 0; 0; 0; 0; 0; 0; 0; 0; 0; 0; 0; 0; 0; 0; 0; 0; 0; 0; 0; 0; 0; 0; 0; 0; 0; 0; 0; 0; 0; 0; 0; 0; 0; 0; 0; 0; 0; 0; 0; 0; 0; 0; 0; 0; 0; 0; 0.000000; 0.000000; 0.000000; 0.000000; 0.000000; 0.000000; 0.000000; 0.000000; 0.000000; 0.000000; 0.000000; 0.000000; 0.000000; 0.000000; 0.000000; 0.000000; 0.000000; 0.000000; 0.000000; 0.000000; 0.000000; 0.000000; 0.000000; 0.000000; 0.000000; 0.000000; 4948; 0
0; 2407669780;1571.209831; 2064; 2000; 3072; 1658; 1694; 1654; 1602; 1776; 12347; 0000; 1705; 1671; 0768; 2746; 0000; 0000; 0006; 1521; 4000; 50.027985; 1517;  9.123878;  20.435551; -1004.314941; -0.123048;  0.299769; -0.099051;  0.524520;  4.411193;  0.000000;  520.000000; -1165.000000;  -2114; -2615; -38043; 0000; 0000; -13887; -24523; 000000;  0.446936; -1.163555;  0.000000; 0000; 0000; 0000; 0000; 0000; 290717696; 000; 000; 000; 000; 255; 255; 255; 255; 156; 116; -3.662855; -700.453613; -66; -11; -19; -10.000000; 000; 000; 000;  0.000000; 0000; 0000; 0000; 0000; 0208; 0.000000; 0000; 0208;  0.000000;  0.000000;  0.000000; 0; 0;  1.500000;-0.045656;-0.019237;-0.036905;  0.000000;  0.000000;  0.000000; 0;  0.002560;  0.000901; -1.857174;  0.000032;  0.000009; -0.000028;  208; 1571.196046; 0066;  148.000000;  49.000000; -106408.000000; 0208; 0.000000; 0.000000; 0.000000 ; 28809; 0.000000; 0.000000; 0.000000; 0.000000; 0.000000; 0.000000; 0.000000; 0.000000; 0.000000; 0.000000; 0.000000; 0.000000; 0000; 0000; -0.282476; 0.959273; -0.001565; -0.959271; -0.282479; -0.002237; -0.002588; 0.000869; 0.999996; 0.000000; 0.000000; 0.000000; 0; 0.000000; 0.000000; 0.000000; 0.000000; -1; 88; 72; 0; 51; 24; 0; 85; 24; 0; 119; 24; 0; 149; 24; 0; 23; 54; 0; 51; 54; 0; 85; 54; 0; 119; 54; 0; 149; 54; 1; 8; 77; 1; 33; 106; 0; 85; 90; 0; 119; 90; 0; 149; 90; 0; 23; 119; 1; 38; 119; 0; 85; 119; 0; 119; 119; 0; 149; 119; 0; 0; 0; 0; 0; 0; 0; 0; 0; 0; 0; 0; 0; 0; 0; 0; 0; 0; 0; 0; 0; 0; 0; 0; 0; 0; 0; 0; 0; 0; 0; 0; 0; 0; 0; 0; 0; 0; 0; 0; 0; 0; 0; 0; 0; 0; 0; 0; 0; 0; 0; 0; 0; 0; 0; 0.000000; 0.000000; 0.000000; 0.000000; 0.000000; 0.000000; 0.000000; 0.000000; 0.000000; 0.000000; 0.000000; 0.000000; 0.000000; 0.000000; 0.000000; 0.000000; 0.000000; 0.000000; 0.000000; 0.000000; 0.000000; 0.000000; 0.000000; 0.000000; 0.000000; 0.000000; 4914; 0
0; 2407669780;1571.214856; 2064; 2000; 3072; 1657; 1694; 1653; 1602; 1777; 12347; 0000; 1705; 1671; 0000; 0000; 3758; 0000; 0137; 3162; 4000; 50.027893; 1517;  9.203583;  20.431160; -1004.128418; -0.254308;  0.130288; -0.023172;  0.524526;  4.411200;  0.000000;  525.000000; -1165.000000;  -2114; -2615; -38043; 0000; 0000; -13887; -24523; 000000;  0.446936; -1.163555;  0.000000; 0000; 0000; 0000; 0000; 0000; 290717696; 000; 000; 000; 000; 255; 255; 255; 255; 156; 116; -3.662855; -700.453613; -66; -11; -19; -10.000000; 000; 000; 000;  0.000000; 0000; 0000; 0000; 0000; 0208; 0.000000; 0000; 0208;  0.000000;  0.000000;  0.000000; 0; 0;  1.500000;-0.045656;-0.019237;-0.036905;  0.000000;  0.000000;  0.000000; 0;  0.002560;  0.000901; -1.857174;  0.000001;  0.000013; -0.000028;  208; 1571.196046; 0066;  148.000000;  48.000000; -106407.000000; 0208; 0.000000; 0.000000; 0.000000 ; 28809; 0.000000; 0.000000; 0.000000; 0.000000; 0.000000; 0.000000; 0.000000; 0.000000; 0.000000; 0.000000; 0.000000; 0.000000; 0000; 0000; -0.282469; 0.959275; -0.001543; -0.959273; -0.282472; -0.002252; -0.002596; 0.000844; 0.999996; 0.000000; 0.000000; 0.000000; 0; 0.000000; 0.000000; 0.000000; 0.000000; -1; 88; 72; 0; 51; 24; 0; 85; 24; 0; 119; 24; 0; 149; 24; 0; 23; 54; 0; 51; 54; 0; 85; 54; 0; 119; 54; 0; 149; 54; 1; 8; 77; 1; 33; 106; 0; 85; 90; 0; 119; 90; 0; 149; 90; 0; 23; 119; 1; 38; 119; 0; 85; 119; 0; 119; 119; 0; 149; 119; 0; 0; 0; 0; 0; 0; 0; 0; 0; 0; 0; 0; 0; 0; 0; 0; 0; 0; 0; 0; 0; 0; 0; 0; 0; 0; 0; 0; 0; 0; 0; 0; 0; 0; 0; 0; 0; 0; 0; 0; 0; 0; 0; 0; 0; 0; 0; 0; 0; 0; 0; 0; 0; 0; 0; 0.000000; 0.000000; 0.000000; 0.000000; 0.000000; 0.000000; 0.000000; 0.000000; 0.000000; 0.000000; 0.000000; 0.000000; 0.000000; 0.000000; 0.000000; 0.000000; 0.000000; 0.000000; 0.000000; 0.000000; 0.000000; 0.000000; 0.000000; 0.000000; 0.000000; 0.000000; 4985; 0
0; 2407669780;1571.219881; 2064; 2000; 3072; 1658; 1694; 1653; 1608; 1777; 12347; 0000; 1705; 1672; 0000; 0000; 3758; 0000; 0274; 3569; 4000; 50.027809; 1515;  9.134518;  20.410072; -1003.142334;  0.027379;  0.051471;  0.026493;  0.524531;  4.411206;  0.000000;  521.000000; -1165.000000;  -2114; -2615; -38043; 0000; 0000; -13887; -24523; 000000;  0.446936; -1.163555;  0.000000; 0000; 0000; 0000; 0000; 0000; 290717696; 000; 000; 000; 000; 255; 255; 255; 255; 156; 116; -3.662855; -700.453613; -66; -11; -19; -10.000000; 000; 000; 000;  0.000000; 0000; 0000; 0000; 0000; 0208; 0.000000; 0000; 0208;  0.000000;  0.000000;  0.000000; 0; 0;  1.500000;-0.045656;-0.019237;-0.036905;  0.000000;  0.000000;  0.000000; 0;  0.002588;  0.000869; -1.857171;  0.000001;  0.000013; -0.000028;  208; 1571.212654; 0066;  148.000000;  48.000000; -106406.000000; 0208; 0.000000; 0.000000; 0.000000 ; 28809; 0.000000; 0.000000; 0.000000; 0.000000; 0.000000; 0.000000; 0.000000; 0.000000; 0.000000; 0.000000; 0.000000; 0.000000; 0000; 0000; -0.282457; 0.959279; -0.001543; -0.959276; -0.282460; -0.002253; -0.002597; 0.000844; 0.999996; 0.000000; 0.000000; 0.000000; 0; 0.000000; 0.000000; 0.000000; 0.000000; -1; 88; 72; 0; 51; 24; 0; 85; 24; 0; 119; 24; 0; 149; 24; 0; 23; 54; 0; 51; 54; 0; 85; 54; 0; 119; 54; 0; 149; 54; 1; 8; 77; 1; 33; 106; 0; 85; 90; 0; 119; 90; 0; 149; 90; 0; 23; 119; 1; 38; 119; 0; 85; 119; 0; 119; 119; 0; 149; 119; 0; 0; 0; 0; 0; 0; 0; 0; 0; 0; 0; 0; 0; 0; 0; 0; 0; 0; 0; 0; 0; 0; 0; 0; 0; 0; 0; 0; 0; 0; 0; 0; 0; 0; 0; 0; 0; 0; 0; 0; 0; 0; 0; 0; 0; 0; 0; 0; 0; 0; 0; 0; 0; 0; 0; 0.000000; 0.000000; 0.000000; 0.000000; 0.000000; 0.000000; 0.000000; 0.000000; 0.000000; 0.000000; 0.000000; 0.000000; 0.000000; 0.000000; 0.000000; 0.000000; 0.000000; 0.000000; 0.000000; 0.000000; 0.000000; 0.000000; 0.000000; 0.000000; 0.000000; 0.000000; 4988; 0
0; 2407669780;1571.224842; 2064; 2000; 3072; 1657; 1694; 1654; 1604; 1775; 12347; 0000; 1705; 1671; 0000; 0000; 3758; 0000; 0409; 3632; 4000; 50.027725; 1516;  9.196218;  20.418415; -1003.539307; -0.115528;  0.066564;  0.033633;  0.524536;  4.411213;  0.000000;  524.000000; -1165.000000;  -2114; -2615; -38043; 0000; 0000; -13887; -24523; 000000;  0.446936; -1.163555;  0.000000; 0000; 0000; 0000; 0000; 0000; 290717696; 000; 000; 000; 000; 255; 255; 255; 255; 156; 116; -3.662855; -700.453613; -66; -11; -19; -10.000000; 000; 000; 000;  0.000000; 0000; 0000; 0000; 0000; 0208; 0.000000; 0000; 0208;  0.000000;  0.000000;  0.000000; 0; 0;  1.500000;-0.045656;-0.019237;-0.036905;  0.000000;  0.000000;  0.000000; 0;  0.002588;  0.000869; -1.857171;  0.000001;  0.000013; -0.000028;  208; 1571.212654; 0066;  148.000000;  47.000000; -106406.000000; 0208; 0.000000; 0.000000; 0.000000 ; 28809; 0.000000; 0.000000; 0.000000; 0.000000; 0.000000; 0.000000; 0.000000; 0.000000; 0.000000; 0.000000; 0.000000; 0.000000; 0000; 0000; -0.282446; 0.959282; -0.001532; -0.959280; -0.282449; -0.002259; -0.002600; 0.000831; 0.999996; 0.000000; 0.000000; 0.000000; 0; 0.000000; 0.000000; 0.000000; 0.000000; -1; 88; 72; 0; 51; 24; 0; 85; 24; 0; 119; 24; 0; 149; 24; 0; 23; 54; 0; 51; 54; 0; 85; 54; 0; 119; 54; 0; 149; 54; 1; 8; 77; 1; 33; 106; 0; 85; 90; 0; 119; 90; 0; 149; 90; 0; 23; 119; 1; 38; 119; 0; 85; 119; 0; 119; 119; 0; 149; 119; 0; 0; 0; 0; 0; 0; 0; 0; 0; 0; 0; 0; 0; 0; 0; 0; 0; 0; 0; 0; 0; 0; 0; 0; 0; 0; 0; 0; 0; 0; 0; 0; 0; 0; 0; 0; 0; 0; 0; 0; 0; 0; 0; 0; 0; 0; 0; 0; 0; 0; 0; 0; 0; 0; 0; 0.000000; 0.000000; 0.000000; 0.000000; 0.000000; 0.000000; 0.000000; 0.000000; 0.000000; 0.000000; 0.000000; 0.000000; 0.000000; 0.000000; 0.000000; 0.000000; 0.000000; 0.000000; 0.000000; 0.000000; 0.000000; 0.000000; 0.000000; 0.000000; 0.000000; 0.000000; 4920; 0
0; 2407669780;1571.229821; 2064; 2000; 3072; 1657; 1694; 1654; 1602; 1775; 12347; 0000; 1705; 1672; 0000; 0000; 3758; 0000; 0545; 3680; 4000; 50.027641; 1516;  9.145712;  20.428368; -1003.988281; -0.154107; -0.014050;  0.023654;  0.524541;  4.411220;  0.000000;  521.000000; -1165.000000;  -2114; -2615; -38043; 0000; 0000; -13887; -24523; 000000;  0.446936; -1.163555;  0.000000; 0000; 0000; 0000; 0000; 0000; 290717696; 000; 000; 000; 000; 255; 255; 255; 255; 156; 116; -3.662855; -700.453613; -66; -11; -19; -10.000000; 000; 000; 000;  0.000000; 0000; 0000; 0000; 0000; 0208; 0.000000; 0000; 0208;  0.000000;  0.000000;  0.000000; 0; 0;  1.500000;-0.045656;-0.019237;-0.036905;  0.000000;  0.000000;  0.000000; 0;  0.002588;  0.000869; -1.857171; -0.000034;  0.000047; -0.000009;  208; 1571.212654; 0066;  148.000000;  46.000000; -106405.000000; 0208; 0.000000; 0.000000; 0.000000 ; 28809; 0.000000; 0.000000; 0.000000; 0.000000; 0.000000; 0.000000; 0.000000; 0.000000; 0.000000; 0.000000; 0.000000; 0.000000; 0000; 0000; -0.282435; 0.959285; -0.001515; -0.959283; -0.282438; -0.002259; -0.002595; 0.000815; 0.999996; 0.000000; 0.000000; 0.000000; 0; 0.000000; 0.000000; 0.000000; 0.000000; -1; 88; 72; 0; 51; 24; 0; 85; 24; 0; 119; 24; 0; 149; 24; 0; 23; 54; 0; 51; 54; 0; 85; 54; 0; 119; 54; 0; 149; 54; 1; 8; 77; 1; 33; 106; 0; 85; 90; 0; 119; 90; 0; 149; 90; 0; 23; 119; 1; 38; 119; 0; 85; 119; 0; 119; 119; 0; 149; 119; 0; 0; 0; 0; 0; 0; 0; 0; 0; 0; 0; 0; 0; 0; 0; 0; 0; 0; 0; 0; 0; 0; 0; 0; 0; 0; 0; 0; 0; 0; 0; 0; 0; 0; 0; 0; 0; 0; 0; 0; 0; 0; 0; 0; 0; 0; 0; 0; 0; 0; 0; 0; 0; 0; 0; 0.000000; 0.000000; 0.000000; 0.000000; 0.000000; 0.000000; 0.000000; 0.000000; 0.000000; 0.000000; 0.000000; 0.000000; 0.000000; 0.000000; 0.000000; 0.000000; 0.000000; 0.000000; 0.000000; 0.000000; 0.000000; 0.000000; 0.000000; 0.000000; 0.000000; 0.000000; 4939; 0
0; 2407669780;1571.234903; 2068; 2000; 3072; 1657; 1694; 1653; 1605; 1778; 12347; 0000; 1705; 1671; 0000; 0000; 3758; 0000; 0682; 3681; 4000; 50.027557; 1516;  10.578209;  20.417896; -1003.789307; -0.168636;  0.108762; -0.022996;  0.524546;  4.411219;  0.000000;  603.000000; -1165.000000;  -2114; -2615; -38043; 0000; 0000; -13887; -24523; 000000;  0.446936; -1.163555;  0.000000; 0000; 0000; 0000; 0000; 0000; 290717696; 000; 000; 000; 000; 255; 255; 255; 255; 156; 116; -3.662855; -700.453613; -66; -11; -19; -10.000000; 000; 000; 000;  0.000000; 0000; 0000; 0000; 0000; 0208; 0.000000; 0000; 0208;  0.000000;  0.000000;  0.000000; 0; 0;  1.500000;-0.045656;-0.019237;-0.036905;  0.000000;  0.000000;  0.000000; 0;  0.002600;  0.000831; -1.857140; -0.000034;  0.000047; -0.000009;  208; 1571.229278; 0066;  149.000000;  45.000000; -106405.000000; 0208; 0.000000; 0.000000; 0.000000 ; 28809; 0.000000; 0.000000; 0.000000; 0.000000; 0.000000; 0.000000; 0.000000; 0.000000; 0.000000; 0.000000; 0.000000; 0.000000; 0000; 0000; -0.282428; 0.959288; -0.001501; -0.959285; -0.282430; -0.002273; -0.002605; 0.000798; 0.999996; 0.000000; 0.000000; 0.000000; 0; 0.000000; 0.000000; 0.000000; 0.000000; -1; 88; 72; 0; 51; 24; 0; 85; 24; 0; 119; 24; 0; 149; 24; 0; 23; 54; 0; 51; 54; 0; 85; 54; 0; 119; 54; 0; 149; 54; 1; 8; 77; 1; 33; 106; 0; 85; 90; 0; 119; 90; 0; 149; 90; 0; 23; 119; 1; 38; 119; 0; 85; 119; 0; 119; 119; 0; 149; 119; 0; 0; 0; 0; 0; 0; 0; 0; 0; 0; 0; 0; 0; 0; 0; 0; 0; 0; 0; 0; 0; 0; 0; 0; 0; 0; 0; 0; 0; 0; 0; 0; 0; 0; 0; 0; 0; 0; 0; 0; 0; 0; 0; 0; 0; 0; 0; 0; 0; 0; 0; 0; 0; 0; 0; 0.000000; 0.000000; 0.000000; 0.000000; 0.000000; 0.000000; 0.000000; 0.000000; 0.000000; 0.000000; 0.000000; 0.000000; 0.000000; 0.000000; 0.000000; 0.000000; 0.000000; 0.000000; 0.000000; 0.000000; 0.000000; 0.000000; 0.000000; 0.000000; 0.000000; 0.000000; 5044; 0
0; 2407669780;1571.239867; 2068; 2000; 3068; 1657; 1694; 1654; 1604; 1776; 12347; 0000; 1705; 1671; 0000; 0000; 3758; 0000; 0818; 3697; 3501; 50.027473; 1516;  11.526083;  20.381054; -1002.279541; -0.420151;  0.113980; -0.080357;  0.524551;  4.411213;  0.000000;  658.000000; -1164.000000;  -2114; -2615; -38043; 0000; 0000; -13887; -24523; 000000;  0.446936; -1.163555;  0.000000; 0000; 0000; 0000; 0000; 0000; 290717696; 000; 000; 000; 000; 255; 255; 255; 255; 156; 116; -3.662855; -700.453613; -66; -11; -19; -10.000000; 000; 000; 000;  0.000000; 0000; 0000; 0000; 0000; 0208; 0.000000; 0000; 0208;  0.000000;  0.000000;  0.000000; 0; 0;  1.500000;-0.045656;-0.019237;-0.036905;  0.000000;  0.000000;  0.000000; 0;  0.002600;  0.000831; -1.857140; -0.000034;  0.000047; -0.000009;  208; 1571.229278; 0066;  149.000000;  43.000000; -106405.000000; 0208; 0.000000; 0.000000; 0.000000 ; 28809; 0.000000; 0.000000; 0.000000; 0.000000; 0.000000; 0.000000; 0.000000; 0.000000; 0.000000; 0.000000; 0.000000; 0.000000; 0000; 0000; -0.282425; 0.959288; -0.001467; -0.959286; -0.282428; -0.002297; -0.002618; 0.000759; 0.999996; 0.000000; 0.000000; 0.000000; 0; 0.000000; 0.000000; 0.000000; 0.000000; -1; 88; 72; 0; 51; 24; 0; 85; 24; 0; 119; 24; 0; 149; 24; 0; 23; 54; 0; 51; 54; 0; 85; 54; 0; 119; 54; 0; 149; 54; 1; 8; 77; 1; 33; 106; 0; 85; 90; 0; 119; 90; 0; 149; 90; 0; 23; 119; 1; 38; 119; 0; 85; 119; 0; 119; 119; 0; 149; 119; 0; 0; 0; 0; 0; 0; 0; 0; 0; 0; 0; 0; 0; 0; 0; 0; 0; 0; 0; 0; 0; 0; 0; 0; 0; 0; 0; 0; 0; 0; 0; 0; 0; 0; 0; 0; 0; 0; 0; 0; 0; 0; 0; 0; 0; 0; 0; 0; 0; 0; 0; 0; 0; 0; 0; 0.000000; 0.000000; 0.000000; 0.000000; 0.000000; 0.000000; 0.000000; 0.000000; 0.000000; 0.000000; 0.000000; 0.000000; 0.000000; 0.000000; 0.000000; 0.000000; 0.000000; 0.000000; 0.000000; 0.000000; 0.000000; 0.000000; 0.000000; 0.000000; 0.000000; 0.000000; 4910; 0
0; 2407669780;1571.244862; 2064; 2000; 3068; 1658; 1694; 1653; 1607; 1775; 12347; 0000; 1705; 1671; 0000; 0000; 3758; 0000; 0953; 3680; 2566; 50.027390; 1516;  11.619774;  20.360130; -1001.333496; -0.092781;  0.050634;  0.040931;  0.524555;  4.411206;  0.000000;  664.000000; -1164.000000;  -2114; -2615; -38043; 0000; 0000; -13887; -24523; 000000;  0.446936; -1.163555;  0.000000; 0000; 0000; 0000; 0000; 0000; 290717696; 000; 000; 000; 000; 255; 255; 255; 255; 156; 116; -3.662855; -700.453613; -66; -11; -19; -10.000000; 000; 000; 000;  0.000000; 0000; 0000; 0000; 0000; 0208; 0.000000; 0000; 0208;  0.000000;  0.000000;  0.000000; 0; 0;  1.500000;-0.045656;-0.019237;-0.036905;  0.000000;  0.000000;  0.000000; 0;  0.002600;  0.000831; -1.857140; -0.000034;  0.000047; -0.000009;  208; 1571.229278; 0066;  150.000000;  42.000000; -106404.000000; 0208; 0.000000; 0.000000; 0.000000 ; 28809; 0.000000; 0.000000; 0.000000; 0.000000; 0.000000; 0.000000; 0.000000; 0.000000; 0.000000; 0.000000; 0.000000; 0.000000; 0000; 0000; -0.282413; 0.959292; -0.001460; -0.959289; -0.282416; -0.002307; -0.002626; 0.000748; 0.999996; 0.000000; 0.000000; 0.000000; 0; 0.000000; 0.000000; 0.000000; 0.000000; -1; 88; 72; 0; 51; 24; 0; 85; 24; 0; 119; 24; 0; 149; 24; 0; 23; 54; 0; 51; 54; 0; 85; 54; 0; 119; 54; 0; 149; 54; 1; 8; 77; 1; 33; 106; 0; 85; 90; 0; 119; 90; 0; 149; 90; 0; 23; 119; 1; 38; 119; 0; 85; 119; 0; 119; 119; 0; 149; 119; 0; 0; 0; 0; 0; 0; 0; 0; 0; 0; 0; 0; 0; 0; 0; 0; 0; 0; 0; 0; 0; 0; 0; 0; 0; 0; 0; 0; 0; 0; 0; 0; 0; 0; 0; 0; 0; 0; 0; 0; 0; 0; 0; 0; 0; 0; 0; 0; 0; 0; 0; 0; 0; 0; 0; 0.000000; 0.000000; 0.000000; 0.000000; 0.000000; 0.000000; 0.000000; 0.000000; 0.000000; 0.000000; 0.000000; 0.000000; 0.000000; 0.000000; 0.000000; 0.000000; 0.000000; 0.000000; 0.000000; 0.000000; 0.000000; 0.000000; 0.000000; 0.000000; 0.000000; 0.000000; 4956; 0
0; 2407669780;1571.249841; 2064; 2000; 3068; 1657; 1694; 1654; 1603; 1776; 12347; 0000; 1705; 1672; 0768; 2746; 0000; 0000; 1090; 3674; 1877; 50.027306; 1516;  11.343817;  20.326660; -999.736816; -0.191231;  0.064422; -0.025828;  0.524559;  4.411201;  0.000000;  649.000000; -1164.000000;  -2114; -2615; -38043; 0000; 0000; -13887; -24523; 000000;  0.446936; -1.163555;  0.000000; 0000; 0000; 0000; 0000; 0000; 290717696; 000; 000; 000; 000; 255; 255; 255; 255; 156; 116; -3.662855; -700.453613; -66; -11; -19; -10.000000; 000; 000; 000;  0.000000; 0000; 0000; 0000; 0000; 0208; 0.000000; 0000; 0208;  0.000000;  0.000000;  0.000000; 0; 0;  1.500000;-0.045656;-0.019237;-0.036905;  0.000000;  0.000000;  0.000000; 0;  0.002626;  0.000749; -1.857106; -0.000062;  0.000020; -0.000003;  208; 1571.245927; 0066;  150.000000;  41.000000; -106403.000000; 0208; 0.000000; 0.000000; 0.000000 ; 28809; 0.000000; 0.000000; 0.000000; 0.000000; 0.000000; 0.000000; 0.000000; 0.000000; 0.000000; 0.000000; 0.000000; 0.000000; 0000; 0000; -0.282406; 0.959294; -0.001444; -0.959291; -0.282409; -0.002321; -0.002634; 0.000730; 0.999996; 0.000000; 0.000000; 0.000000; 0; 0.000000; 0.000000; 0.000000; 0.000000; -1; 88; 72; 0; 51; 24; 0; 85; 24; 0; 119; 24; 0; 149; 24; 0; 23; 54; 0; 51; 54; 0; 85; 54; 0; 119; 54; 0; 149; 54; 1; 8; 77; 1; 33; 106; 0; 85; 90; 0; 119; 90; 0; 149; 90; 0; 23; 119; 1; 38; 119; 0; 85; 119; 0; 119; 119; 0; 149; 119; 0; 0; 0; 0; 0; 0; 0; 0; 0; 0; 0; 0; 0; 0; 0; 0; 0; 0; 0; 0; 0; 0; 0; 0; 0; 0; 0; 0; 0; 0; 0; 0; 0; 0; 0; 0; 0; 0; 0; 0; 0; 0; 0; 0; 0; 0; 0; 0; 0; 0; 0; 0; 0; 0; 0; 0.000000; 0.000000; 0.000000; 0.000000; 0.000000; 0.000000; 0.000000; 0.000000; 0.000000; 0.000000; 0.000000; 0.000000; 0.000000; 0.000000; 0.000000; 0.000000; 0.000000; 0.000000; 0.000000; 0.000000; 0.000000; 0.000000; 0.000000; 0.000000; 0.000000; 0.000000; 4940; 0
0; 2407669780;1571.254902; 2064; 2000; 3068; 1657; 1694; 1654; 1605; 1780; 12347; 0000; 1705; 1671; 0000; 0000; 3758; 0000; 1226; 3289; 1565; 50.027222; 1515;  8.956799;  20.323330; -999.110596; -0.106799;  0.073454; -0.026849;  0.524563;  4.411210;  0.000000;  513.000000; -1165.000000;  -2114; -2615; -38043; 0000; 0000; -13887; -24523; 000000;  0.446936; -1.163555;  0.000000; 0000; 0000; 0000; 0000; 0000; 290717696; 000; 000; 000; 000; 255; 255; 255; 255; 156; 116; -3.662855; -700.453613; -66; -11; -19; -10.000000; 000; 000; 000;  0.000000; 0000; 0000; 0000; 0000; 0208; 0.000000; 0000; 0208;  0.000000;  0.000000;  0.000000; 0; 0;  1.500000;-0.045656;-0.019237;-0.036905;  0.000000;  0.000000;  0.000000; 0;  0.002626;  0.000749; -1.857106; -0.000062;  0.000020; -0.000003;  208; 1571.245927; 0066;  151.000000;  41.000000; -106403.000000; 0208; 0.000000; 0.000000; 0.000000 ; 28810; 0.000000; 0.000000; 0.000000; 0.000000; 0.000000; 0.000000; 0.000000; 0.000000; 0.000000; 0.000000; 0.000000; 0.000000; 0000; 0000; -0.282399; 0.959296; -0.001433; -0.959293; -0.282402; -0.002326; -0.002636; 0.000718; 0.999996; 0.000000; 0.000000; 0.000000; 0; 0.000000; 0.000000; 0.000000; 0.000000; -1; 88; 72; 0; 51; 24; 0; 85; 24; 0; 119; 24; 0; 149; 24; 0; 23; 54; 0; 51; 54; 0; 85; 54; 0; 119; 54; 0; 149; 54; 1; 8; 77; 1; 33; 106; 0; 85; 90; 0; 119; 90; 0; 149; 90; 0; 23; 119; 1; 38; 119; 0; 85; 119; 0; 119; 119; 0; 149; 119; 0; 0; 0; 0; 0; 0; 0; 0; 0; 0; 0; 0; 0; 0; 0; 0; 0; 0; 0; 0; 0; 0; 0; 0; 0; 0; 0; 0; 0; 0; 0; 0; 0; 0; 0; 0; 0; 0; 0; 0; 0; 0; 0; 0; 0; 0; 0; 0; 0; 0; 0; 0; 0; 0; 0; 0.000000; 0.000000; 0.000000; 0.000000; 0.000000; 0.000000; 0.000000; 0.000000; 0.000000; 0.000000; 0.000000; 0.000000; 0.000000; 0.000000; 0.000000; 0.000000; 0.000000; 0.000000; 0.000000; 0.000000; 0.000000; 0.000000; 0.000000; 0.000000; 0.000000; 0.000000; 5023; 0
0; 2407669780;1571.259832; 2068; 2000; 3068; 1657; 1694; 1654; 1605; 1776; 12347; 0000; 1705; 1672; 0000; 0000; 3758; 0000; 1361; 3511; 1412; 50.027138; 1516;  9.846853;  20.335728; -999.858398; -0.170188;  0.067399; -0.041915;  0.524567;  4.411212;  0.000000;  564.000000; -1165.000000;  -2114; -2615; -38043; 0000; 0000; -13887; -24523; 000000;  0.446936; -1.163555;  0.000000; 0000; 0000; 0000; 0000; 0000; 290717696; 000; 000; 000; 000; 255; 255; 255; 255; 156; 116; -3.662855; -700.453613; -66; -11; -19; -10.000000; 000; 000; 000;  0.000000; 0000; 0000; 0000; 0000; 0208; 0.000000; 0000; 0208;  0.000000;  0.000000;  0.000000; 0; 0;  1.500000;-0.045656;-0.019237;-0.036905;  0.000000;  0.000000;  0.000000; 0;  0.002626;  0.000749; -1.857106; -0.000062;  0.000020; -0.000003;  208; 1571.245927; 0066;  151.000000;  40.000000; -106403.000000; 0208; 0.000000; 0.000000; 0.000000 ; 28810; 0.000000; 0.000000; 0.000000; 0.000000; 0.000000; 0.000000; 0.000000; 0.000000; 0.000000; 0.000000; 0.000000; 0.000000; 0000; 0000; -0.282394; 0.959298; -0.001418; -0.959295; -0.282396; -0.002335; -0.002640; 0.000701; 0.999996; 0.000000; 0.000000; 0.000000; 0; 0.000000; 0.000000; 0.000000; 0.000000; -1; 88; 72; 0; 51; 24; 0; 85; 24; 0; 119; 24; 0; 149; 24; 0; 23; 54; 0; 51; 54; 0; 85; 54; 0; 119; 54; 0; 149; 54; 1; 8; 77; 1; 33; 106; 0; 85; 90; 0; 119; 90; 0; 149; 90; 0; 23; 119; 1; 38; 119; 0; 85; 119; 0; 119; 119; 0; 149; 119; 0; 0; 0; 0; 0; 0; 0; 0; 0; 0; 0; 0; 0; 0; 0; 0; 0; 0; 0; 0; 0; 0; 0; 0; 0; 0; 0; 0; 0; 0; 0; 0; 0; 0; 0; 0; 0; 0; 0; 0; 0; 0; 0; 0; 0; 0; 0; 0; 0; 0; 0; 0; 0; 0; 0; 0.000000; 0.000000; 0.000000; 0.000000; 0.000000; 0.000000; 0.000000; 0.000000; 0.000000; 0.000000; 0.000000; 0.000000; 0.000000; 0.000000; 0.000000; 0.000000; 0.000000; 0.000000; 0.000000; 0.000000; 0.000000; 0.000000; 0.000000; 0.000000; 0.000000; 0.000000; 4890; 0
0; 2407669780;1571.264827; 2068; 2004; 3068; 1658; 1695; 1654; 1608; 1778; 12347; 0000; 1705; 1671; 0000; 0000; 3758; 0000; 1499; 3563; 1304; 50.027054; 1516;  11.058697;  18.891430; -999.715088; -0.214416; -0.064571; -0.179543;  0.524563;  4.411209;  0.000000;  633.000000; -1082.000000;  -2114; -2615; -38043; 0000; 0000; -13887; -24523; 000000;  0.446936; -1.163555;  0.000000; 0000; 0000; 0000; 0000; 0000; 290717696; 000; 000; 000; 000; 255; 255; 255; 255; 156; 116; -3.662855; -700.453613; -66; -11; -19; -10.000000; 000; 000; 000;  0.000000; 0000; 0000; 0000; 0000; 0208; 0.000000; 0000; 0208;  0.000000;  0.000000;  0.000000; 0; 0;  1.500000;-0.045656;-0.019237;-0.036905;  0.000000;  0.000000;  0.000000; 0;  0.002626;  0.000749; -1.857106; -0.000038;  0.000018; -0.000001;  208; 1571.245927; 0066;  151.000000;  39.000000; -106403.000000; 0208; 0.000000; 0.000000; 0.000000 ; 28810; 0.000000; 0.000000; 0.000000; 0.000000; 0.000000; 0.000000; 0.000000; 0.000000; 0.000000; 0.000000; 0.000000; 0.000000; 0000; 0000; -0.282400; 0.959296; -0.001401; -0.959293; -0.282402; -0.002336; -0.002637; 0.000685; 0.999996; 0.000000; 0.000000; 0.000000; 0; 0.000000; 0.000000; 0.000000; 0.000000; -1; 88; 72; 0; 51; 24; 0; 85; 24; 0; 119; 24; 0; 149; 24; 0; 23; 54; 0; 51; 54; 0; 85; 54; 0; 119; 54; 0; 149; 54; 1; 8; 77; 1; 33; 106; 0; 85; 90; 0; 119; 90; 0; 149; 90; 0; 23; 119; 1; 38; 119; 0; 85; 119; 0; 119; 119; 0; 149; 119; 0; 0; 0; 0; 0; 0; 0; 0; 0; 0; 0; 0; 0; 0; 0; 0; 0; 0; 0; 0; 0; 0; 0; 0; 0; 0; 0; 0; 0; 0; 0; 0; 0; 0; 0; 0; 0; 0; 0; 0; 0; 0; 0; 0; 0; 0; 0; 0; 0; 0; 0; 0; 0; 0; 0; 0.000000; 0.000000; 0.000000; 0.000000; 0.000000; 0.000000; 0.000000; 0.000000; 0.000000; 0.000000; 0.000000; 0.000000; 0.000000; 0.000000; 0.000000; 0.000000; 0.000000; 0.000000; 0.000000; 0.000000; 0.000000; 0.000000; 0.000000; 0.000000; 0.000000; 0.000000; 4955; 0
0; 2407669780;1571.269932; 2064; 2004; 3068; 1658; 1694; 1654; 1608; 1776; 12347; 0000; 1705; 1672; 0000; 0000; 3758; 0000; 1634; 3595; 1233; 50.026970; 1516;  11.297728;  17.962902; -1000.285400; -0.029438; -0.020142; -0.081505;  0.524555;  4.411204;  0.000000;  646.000000; -1028.000000;  -2114; -2615; -38043; 0000; 0000; -13887; -24523; 000000;  0.446936; -1.163555;  0.000000; 0000; 0000; 0000; 0000; 0000; 290717696; 000; 000; 000; 000; 255; 255; 255; 255; 156; 116; -3.662855; -700.453613; -66; -11; -19; -10.000000; 000; 000; 000;  0.000000; 0000; 0000; 0000; 0000; 0208; 0.000000; 0000; 0208;  0.000000;  0.000000;  0.000000; 0; 0;  1.500000;-0.045656;-0.019237;-0.036905;  0.000000;  0.000000;  0.000000; 0;  0.002640;  0.000701; -1.857086; -0.000038;  0.000018; -0.000001;  208; 1571.262525; 0066;  151.000000;  39.000000; -106403.000000; 0208; 0.000000; 0.000000; 0.000000 ; 28810; 0.000000; 0.000000; 0.000000; 0.000000; 0.000000; 0.000000; 0.000000; 0.000000; 0.000000; 0.000000; 0.000000; 0.000000; 0000; 0000; -0.282398; 0.959297; -0.001404; -0.959294; -0.282400; -0.002336; -0.002637; 0.000687; 0.999996; 0.000000; 0.000000; 0.000000; 0; 0.000000; 0.000000; 0.000000; 0.000000; -1; 88; 72; 0; 51; 24; 0; 85; 24; 0; 119; 24; 0; 149; 24; 0; 23; 54; 0; 51; 54; 0; 85; 54; 0; 119; 54; 0; 149; 54; 1; 8; 77; 1; 33; 106; 0; 85; 90; 0; 119; 90; 0; 149; 90; 0; 23; 119; 1; 38; 119; 0; 85; 119; 0; 119; 119; 0; 149; 119; 0; 0; 0; 0; 0; 0; 0; 0; 0; 0; 0; 0; 0; 0; 0; 0; 0; 0; 0; 0; 0; 0; 0; 0; 0; 0; 0; 0; 0; 0; 0; 0; 0; 0; 0; 0; 0; 0; 0; 0; 0; 0; 0; 0; 0; 0; 0; 0; 0; 0; 0; 0; 0; 0; 0; 0.000000; 0.000000; 0.000000; 0.000000; 0.000000; 0.000000; 0.000000; 0.000000; 0.000000; 0.000000; 0.000000; 0.000000; 0.000000; 0.000000; 0.000000; 0.000000; 0.000000; 0.000000; 0.000000; 0.000000; 0.000000; 0.000000; 0.000000; 0.000000; 0.000000; 0.000000; 5068; 0
0; 2407669780;1571.274803; 2064; 2000; 3068; 1658; 1693; 1654; 1607; 1772; 12347; 0000; 1705; 1671; 0000; 0000; 3758; 0000; 1769; 3579; 1182; 50.026886; 1516;  11.960321;  17.820492; -1000.081543;  0.084741;  0.053058; -0.107543;  0.524545;  4.411196;  0.000000;  685.000000; -1020.000000;  -2114; -2615; -38043; 0000; 0000; -13887; -24523; 000000;  0.446936; -1.163555;  0.000000; 0000; 0000; 0000; 0000; 0000; 290717696; 000; 000; 000; 000; 255; 255; 255; 255; 156; 116; -3.662855; -700.453613; -66; -11; -19; -10.000000; 000; 000; 000;  0.000000; 0000; 0000; 0000; 0000; 0208; 0.000000; 0000; 0208;  0.000000;  0.000000;  0.000000; 0; 0;  1.500000;-0.045656;-0.019237;-0.036905;  0.000000;  0.000000;  0.000000; 0;  0.002640;  0.000701; -1.857086; -0.000038;  0.000018; -0.000001;  208; 1571.262525; 0066;  151.000000;  40.000000; -106403.000000; 0208; 0.000000; 0.000000; 0.000000 ; 28810; 0.000000; 0.000000; 0.000000; 0.000000; 0.000000; 0.000000; 0.000000; 0.000000; 0.000000; 0.000000; 0.000000; 0.000000; 0000; 0000; -0.282398; 0.959297; -0.001418; -0.959294; -0.282400; -0.002341; -0.002646; 0.000699; 0.999996; 0.000000; 0.000000; 0.000000; 0; 0.000000; 0.000000; 0.000000; 0.000000; -1; 88; 72; 0; 51; 24; 0; 85; 24; 0; 119; 24; 0; 149; 24; 0; 23; 54; 0; 51; 54; 0; 85; 54; 0; 119; 54; 0; 149; 54; 1; 8; 77; 1; 33; 106; 0; 85; 90; 0; 119; 90; 0; 149; 90; 0; 23; 119; 1; 38; 119; 0; 85; 119; 0; 119; 119; 0; 149; 119; 0; 0; 0; 0; 0; 0; 0; 0; 0; 0; 0; 0; 0; 0; 0; 0; 0; 0; 0; 0; 0; 0; 0; 0; 0; 0; 0; 0; 0; 0; 0; 0; 0; 0; 0; 0; 0; 0; 0; 0; 0; 0; 0; 0; 0; 0; 0; 0; 0; 0; 0; 0; 0; 0; 0; 0.000000; 0.000000; 0.000000; 0.000000; 0.000000; 0.000000; 0.000000; 0.000000; 0.000000; 0.000000; 0.000000; 0.000000; 0.000000; 0.000000; 0.000000; 0.000000; 0.000000; 0.000000; 0.000000; 0.000000; 0.000000; 0.000000; 0.000000; 0.000000; 0.000000; 0.000000; 4834; 0
0; 2407669780;1571.279826; 2064; 2004; 3068; 1658; 1693; 1654; 1608; 1774; 12347; 0000; 1706; 1671; 0000; 0000; 3758; 0000; 1907; 3326; 1130; 50.026802; 1515;  9.224304;  16.580528; -999.869629;  0.226468;  0.233951; -0.095665;  0.524529;  4.411202;  0.000000;  528.000000; -950.000000;  -2114; -2615; -38043; 0000; 0000; -13887; -24523; 000000;  0.446936; -1.163555;  0.000000; 0000; 0000; 0000; 0000; 0000; 290717696; 000; 000; 000; 000; 255; 255; 255; 255; 156; 116; -3.662855; -700.453613; -66; -11; -19; -10.000000; 000; 000; 000;  0.000000; 0000; 0000; 0000; 0000; 0208; 0.000000; 0000; 0208;  0.000000;  0.000000;  0.000000; 0; 0;  1.500000;-0.045656;-0.019237;-0.036905;  0.000000;  0.000000;  0.000000; 0;  0.002640;  0.000701; -1.857086; -0.000040; -0.000002; -0.000030;  208; 1571.262525; 0066;  152.000000;  41.000000; -106403.000000; 0208; 0.000000; 0.000000; 0.000000 ; 28810; 0.000000; 0.000000; 0.000000; 0.000000; 0.000000; 0.000000; 0.000000; 0.000000; 0.000000; 0.000000; 0.000000; 0.000000; 0000; 0000; -0.282396; 0.959297; -0.001450; -0.959294; -0.282399; -0.002349; -0.002663; 0.000728; 0.999996; 0.000000; 0.000000; 0.000000; 0; 0.000000; 0.000000; 0.000000; 0.000000; -1; 88; 72; 0; 51; 24; 0; 85; 24; 0; 119; 24; 0; 149; 24; 0; 23; 54; 0; 51; 54; 0; 85; 54; 0; 119; 54; 0; 149; 54; 1; 8; 77; 1; 33; 106; 0; 85; 90; 0; 119; 90; 0; 149; 90; 0; 23; 119; 1; 38; 119; 0; 85; 119; 0; 119; 119; 0; 149; 119; 0; 0; 0; 0; 0; 0; 0; 0; 0; 0; 0; 0; 0; 0; 0; 0; 0; 0; 0; 0; 0; 0; 0; 0; 0; 0; 0; 0; 0; 0; 0; 0; 0; 0; 0; 0; 0; 0; 0; 0; 0; 0; 0; 0; 0; 0; 0; 0; 0; 0; 0; 0; 0; 0; 0; 0.000000; 0.000000; 0.000000; 0.000000; 0.000000; 0.000000; 0.000000; 0.000000; 0.000000; 0.000000; 0.000000; 0.000000; 0.000000; 0.000000; 0.000000; 0.000000; 0.000000; 0.000000; 0.000000; 0.000000; 0.000000; 0.000000; 0.000000; 0.000000; 0.000000; 0.000000; 4986; 0
0; 2407669780;1571.284829; 2064; 2000; 3068; 1657; 1693; 1654; 1603; 1773; 12347; 0000; 1704; 1672; 0000; 0000; 3758; 0000; 2042; 3300; 1080; 50.026718; 1516;  8.142763;  19.400333; -999.881836;  0.015154;  0.540624; -0.084064;  0.524528;  4.411215;  0.000000;  466.000000; -1111.000000;  -2114; -2615; -38043; 0000; 0000; -13887; -24523; 000000;  0.446936; -1.163555;  0.000000; 0000; 0000; 0000; 0000; 0000; 290717696; 000; 000; 000; 000; 255; 255; 255; 255; 156; 116; -3.662855; -700.453613; -66; -11; -19; -10.000000; 000; 000; 000;  0.000000; 0000; 0000; 0000; 0000; 0208; 0.000000; 0000; 0208;  0.000000;  0.000000;  0.000000; 0; 0;  1.500000;-0.045656;-0.019237;-0.036905;  0.000000;  0.000000;  0.000000; 0;  0.002646;  0.000699; -1.857090; -0.000040; -0.000002; -0.000030;  208; 1571.279160; 0066;  154.000000;  41.000000; -106403.000000; 0208; 0.000000; 0.000000; 0.000000 ; 28810; 0.000000; 0.000000; 0.000000; 0.000000; 0.000000; 0.000000; 0.000000; 0.000000; 0.000000; 0.000000; 0.000000; 0.000000; 0000; 0000; -0.282394; 0.959297; -0.001463; -0.959295; -0.282397; -0.002388; -0.002704; 0.000729; 0.999996; 0.000000; 0.000000; 0.000000; 0; 0.000000; 0.000000; 0.000000; 0.000000; -1; 88; 72; 0; 51; 24; 0; 85; 24; 0; 119; 24; 0; 149; 24; 0; 23; 54; 0; 51; 54; 0; 85; 54; 0; 119; 54; 0; 149; 54; 1; 8; 77; 1; 33; 106; 0; 85; 90; 0; 119; 90; 0; 149; 90; 0; 23; 119; 1; 38; 119; 0; 85; 119; 0; 119; 119; 0; 149; 119; 0; 0; 0; 0; 0; 0; 0; 0; 0; 0; 0; 0; 0; 0; 0; 0; 0; 0; 0; 0; 0; 0; 0; 0; 0; 0; 0; 0; 0; 0; 0; 0; 0; 0; 0; 0; 0; 0; 0; 0; 0; 0; 0; 0; 0; 0; 0; 0; 0; 0; 0; 0; 0; 0; 0; 0.000000; 0.000000; 0.000000; 0.000000; 0.000000; 0.000000; 0.000000; 0.000000; 0.000000; 0.000000; 0.000000; 0.000000; 0.000000; 0.000000; 0.000000; 0.000000; 0.000000; 0.000000; 0.000000; 0.000000; 0.000000; 0.000000; 0.000000; 0.000000; 0.000000; 0.000000; 4966; 0
0; 2407669780;1571.290156; 2064; 2000; 3068; 1658; 1694; 1654; 1608; 1775; 12347; 0000; 1705; 1671; 0768; 2746; 0000; 0000; 2177; 2852; 1029; 50.026634; 1516;  8.595922;  19.358566; -999.969727;  0.035076;  0.380054; -0.105712;  0.524526;  4.411225;  0.000000;  492.000000; -1109.000000;  -2114; -2615; -38043; 0000; 0000; -13887; -24523; 000000;  0.446936; -1.163555;  0.000000; 0000; 0000; 0000; 0000; 0000; 290717696; 000; 000; 000; 000; 255; 255; 255; 255; 156; 116; -3.662855; -700.453613; -66; -11; -19; -10.000000; 000; 000; 000;  0.000000; 0000; 0000; 0000; 0000; 0208; 0.000000; 0000; 0208;  0.000000;  0.000000;  0.000000; 0; 0;  1.500000;-0.045656;-0.019237;-0.036905;  0.000000;  0.000000;  0.000000; 0;  0.002646;  0.000699; -1.857090; -0.000040; -0.000002; -0.000030;  208; 1571.279160; 0066;  156.000000;  42.000000; -106403.000000; 0208; 0.000000; 0.000000; 0.000000 ; 28810; 0.000000; 0.000000; 0.000000; 0.000000; 0.000000; 0.000000; 0.000000; 0.000000; 0.000000; 0.000000; 0.000000; 0.000000; 0000; 0000; -0.282394; 0.959297; -0.001475; -0.959295; -0.282397; -0.002413; -0.002731; 0.000733; 0.999996; 0.000000; 0.000000; 0.000000; 0; 0.000000; 0.000000; 0.000000; 0.000000; -1; 88; 72; 0; 51; 24; 0; 85; 24; 0; 119; 24; 0; 149; 24; 0; 23; 54; 0; 51; 54; 0; 85; 54; 0; 119; 54; 0; 149; 54; 1; 8; 77; 1; 33; 106; 0; 85; 90; 0; 119; 90; 0; 149; 90; 0; 23; 119; 1; 38; 119; 0; 85; 119; 0; 119; 119; 0; 149; 119; 0; 0; 0; 0; 0; 0; 0; 0; 0; 0; 0; 0; 0; 0; 0; 0; 0; 0; 0; 0; 0; 0; 0; 0; 0; 0; 0; 0; 0; 0; 0; 0; 0; 0; 0; 0; 0; 0; 0; 0; 0; 0; 0; 0; 0; 0; 0; 0; 0; 0; 0; 0; 0; 0; 0; 0.000000; 0.000000; 0.000000; 0.000000; 0.000000; 0.000000; 0.000000; 0.000000; 0.000000; 0.000000; 0.000000; 0.000000; 0.000000; 0.000000; 0.000000; 0.000000; 0.000000; 0.000000; 0.000000; 0.000000; 0.000000; 0.000000; 0.000000; 0.000000; 0.000000; 0.000000; 5288; 0
0; 2407669780;1571.294808; 2064; 2000; 3068; 1658; 1695; 1654; 1611; 1780; 12347; 0000; 1705; 1672; 0000; 0000; 3758; 0000; 2314; 2141; 0978; 50.026550; 1516;  8.710808;  19.947853; -999.874756; -0.079457;  0.137712; -0.107220;  0.524528;  4.411235;  0.000000;  499.000000; -1142.000000;  -2114; -2615; -38043; 0000; 0000; -13887; -24523; 000000;  0.446936; -1.163555;  0.000000; 0000; 0000; 0000; 0000; 0000; 290717696; 000; 000; 000; 000; 255; 255; 255; 255; 156; 116; -3.662855; -700.453613; -66; -11; -19; -10.000000; 000; 000; 000;  0.000000; 0000; 0000; 0000; 0000; 0208; 0.000000; 0000; 0208;  0.000000;  0.000000;  0.000000; 0; 0;  1.500000;-0.045656;-0.019237;-0.036905;  0.000000;  0.000000;  0.000000; 0;  0.002646;  0.000699; -1.857090; -0.000040; -0.000002; -0.000030;  208; 1571.279160; 0066;  156.000000;  41.000000; -106403.000000; 0208; 0.000000; 0.000000; 0.000000 ; 28810; 0.000000; 0.000000; 0.000000; 0.000000; 0.000000; 0.000000; 0.000000; 0.000000; 0.000000; 0.000000; 0.000000; 0.000000; 0000; 0000; -0.282394; 0.959297; -0.001469; -0.959295; -0.282397; -0.002422; -0.002738; 0.000725; 0.999996; 0.000000; 0.000000; 0.000000; 0; 0.000000; 0.000000; 0.000000; 0.000000; -1; 88; 72; 0; 51; 24; 0; 85; 24; 0; 119; 24; 0; 149; 24; 0; 23; 54; 0; 51; 54; 0; 85; 54; 0; 119; 54; 0; 149; 54; 1; 8; 77; 1; 33; 106; 0; 85; 90; 0; 119; 90; 0; 149; 90; 0; 23; 119; 1; 38; 119; 0; 85; 119; 0; 119; 119; 0; 149; 119; 0; 0; 0; 0; 0; 0; 0; 0; 0; 0; 0; 0; 0; 0; 0; 0; 0; 0; 0; 0; 0; 0; 0; 0; 0; 0; 0; 0; 0; 0; 0; 0; 0; 0; 0; 0; 0; 0; 0; 0; 0; 0; 0; 0; 0; 0; 0; 0; 0; 0; 0; 0; 0; 0; 0; 0.000000; 0.000000; 0.000000; 0.000000; 0.000000; 0.000000; 0.000000; 0.000000; 0.000000; 0.000000; 0.000000; 0.000000; 0.000000; 0.000000; 0.000000; 0.000000; 0.000000; 0.000000; 0.000000; 0.000000; 0.000000; 0.000000; 0.000000; 0.000000; 0.000000; 0.000000; 4613; 0
0; 2407669780;1571.301062; 2064; 2000; 3068; 1658; 1694; 1653; 1605; 1775; 12347; 0000; 1705; 1672; 0000; 0000; 3758; 0000; 2450; 1989; 0927; 50.026466; 1516;  9.527227;  21.388813; -999.799805;  0.042273; -0.027191; -0.017994;  0.524538;  4.411241;  0.000000;  545.000000; -1225.000000;  -2114; -2615; -38043; 0000; 0000; -13887; -24523; 000000;  0.446936; -1.163555;  0.000000; 0000; 0000; 0000; 0000; 0000; 290717696; 000; 000; 000; 000; 255; 255; 255; 255; 156; 116; -3.662855; -700.453613; -66; -11; -19; -10.000000; 000; 000; 000;  0.000000; 0000; 0000; 0000; 0000; 0208; 0.000000; 0000; 0208;  0.000000;  0.000000;  0.000000; 0; 0;  1.500000;-0.045656;-0.019237;-0.036905;  0.000000;  0.000000;  0.000000; 0;  0.002738;  0.000725; -1.857086;  0.000026;  0.000088; -0.000028;  208; 1571.295785; 0066;  156.000000;  41.000000; -106402.000000; 0208; 0.000000; 0.000000; 0.000000 ; 28810; 0.000000; 0.000000; 0.000000; 0.000000; 0.000000; 0.000000; 0.000000; 0.000000; 0.000000; 0.000000; 0.000000; 0.000000; 0000; 0000; -0.282387; 0.959300; -0.001466; -0.959297; -0.282390; -0.002418; -0.002733; 0.000724; 0.999996; 0.000000; 0.000000; 0.000000; 0; 0.000000; 0.000000; 0.000000; 0.000000; -1; 88; 72; 0; 51; 24; 0; 85; 24; 0; 119; 24; 0; 149; 24; 0; 23; 54; 0; 51; 54; 0; 85; 54; 0; 119; 54; 0; 149; 54; 1; 8; 77; 1; 33; 106; 0; 85; 90; 0; 119; 90; 0; 149; 90; 0; 23; 119; 1; 38; 119; 0; 85; 119; 0; 119; 119; 0; 149; 119; 0; 0; 0; 0; 0; 0; 0; 0; 0; 0; 0; 0; 0; 0; 0; 0; 0; 0; 0; 0; 0; 0; 0; 0; 0; 0; 0; 0; 0; 0; 0; 0; 0; 0; 0; 0; 0; 0; 0; 0; 0; 0; 0; 0; 0; 0; 0; 0; 0; 0; 0; 0; 0; 0; 0; 0.000000; 0.000000; 0.000000; 0.000000; 0.000000; 0.000000; 0.000000; 0.000000; 0.000000; 0.000000; 0.000000; 0.000000; 0.000000; 0.000000; 0.000000; 0.000000; 0.000000; 0.000000; 0.000000; 0.000000; 0.000000; 0.000000; 0.000000; 0.000000; 0.000000; 0.000000; 6215; 0
0; 2407669780;1571.304855; 2064; 1996; 3068; 1658; 1694; 1654; 1609; 1778; 12347; 0000; 1705; 1672; 0000; 0000; 3758; 0000; 2585; 1285; 0876; 50.026382; 1516;  9.191845;  21.068542; -999.794678;  0.222444; -0.228499; -0.049025;  0.524546;  4.411248;  0.000000;  526.000000; -1207.000000;  -2114; -2615; -38043; 0000; 0000; -13887; -24523; 000000;  0.446936; -1.163555;  0.000000; 0000; 0000; 0000; 0000; 0000; 290717696; 000; 000; 000; 000; 255; 255; 255; 255; 156; 116; -3.662855; -700.453613; -66; -11; -19; -10.000000; 000; 000; 000;  0.000000; 0000; 0000; 0000; 0000; 0208; 0.000000; 0000; 0208;  0.000000;  0.000000;  0.000000; 0; 0;  1.500000;-0.045656;-0.019237;-0.036905;  0.000000;  0.000000;  0.000000; 0;  0.002738;  0.000725; -1.857086;  0.000026;  0.000088; -0.000028;  208; 1571.295785; 0066;  155.000000;  42.000000; -106402.000000; 0208; 0.000000; 0.000000; 0.000000 ; 28811; 0.000000; 0.000000; 0.000000; 0.000000; 0.000000; 0.000000; 0.000000; 0.000000; 0.000000; 0.000000; 0.000000; 0.000000; 0000; 0000; -0.282382; 0.959301; -0.001474; -0.959298; -0.282385; -0.002390; -0.002709; 0.000739; 0.999996; 0.000000; 0.000000; 0.000000; 0; 0.000000; 0.000000; 0.000000; 0.000000; -1; 88; 72; 0; 51; 24; 0; 85; 24; 0; 119; 24; 0; 149; 24; 0; 23; 54; 0; 51; 54; 0; 85; 54; 0; 119; 54; 0; 149; 54; 1; 8; 77; 1; 33; 106; 0; 85; 90; 0; 119; 90; 0; 149; 90; 0; 23; 119; 1; 38; 119; 0; 85; 119; 0; 119; 119; 0; 149; 119; 0; 0; 0; 0; 0; 0; 0; 0; 0; 0; 0; 0; 0; 0; 0; 0; 0; 0; 0; 0; 0; 0; 0; 0; 0; 0; 0; 0; 0; 0; 0; 0; 0; 0; 0; 0; 0; 0; 0; 0; 0; 0; 0; 0; 0; 0; 0; 0; 0; 0; 0; 0; 0; 0; 0; 0.000000; 0.000000; 0.000000; 0.000000; 0.000000; 0.000000; 0.000000; 0.000000; 0.000000; 0.000000; 0.000000; 0.000000; 0.000000; 0.000000; 0.000000; 0.000000; 0.000000; 0.000000; 0.000000; 0.000000; 0.000000; 0.000000; 0.000000; 0.000000; 0.000000; 0.000000; 3751; 0
